timestamp,ax,ay,az,fall_state,time_interval,vx,dx,vy,dy,vz,dz,angle_xy,angle_yz,angle_zx,g_force,jerk,orientation_xy,orientation_yz,orientation_zx,magnitude_acceleration,magnitude_velocity,magnitude_displacement,impact_detection
2024-02-06 10:25:25.905933,0.5336185097694397,9.92099666595459,1.809038519859314,0,0.0,0.0,0.0,0.0,0.0,0.0,0.0,3.078789035322691,79.66596908345953,73.56533506474311,10.098690208447104,inf,86.92121096467731,10.33403091654047,16.434664935256897,10.098690208447104,0.0,0.0,1
2024-02-06 10:25:25.980814,1.4285660982131958,8.659934043884277,2.017221450805664,0,7.4881e-05,7.346517281517386e-05,2.750572802786517e-09,0.0006956793362417221,2.6046582188558197e-08,0.0001432570864316821,5.3636169445453944e-09,9.36730457035536,76.88750028147344,54.69444395617303,9.005800415453391,-14595.021340443007,80.63269542964464,13.112499718526562,35.30555604382697,9.005800415453391,0.0007140654474930017,2.6734967386861732e-08,0
2024-02-06 10:25:26.055790,1.3472073078155518,9.4950590133667,2.0220072269439697,0,7.4976e-05,7.359702205196021e-05,2.7575582570427055e-09,0.0006965416984119414,2.611271268770424e-08,0.0001434489497938752,5.3772354812661075e-09,8.075514336726267,77.97823518334377,56.32558031262037,9.801001296977848,10606.0723634824,81.92448566327373,12.021764816656226,33.67441968737964,9.801001296977848,0.0007149576634168449,2.6802845984569653e-08,0
2024-02-06 10:25:26.130785,0.8303391337394714,9.325162887573242,2.4216229915618896,0,7.499500000000001e-05,7.361770874315501e-05,2.75895679698526e-09,0.0006967204905200004,2.6125948678499105e-08,0.00014349116428095105,5.379961412349821e-09,5.088360236271358,75.44258647112181,71.07390760730583,9.670180136380795,-1744.3984345230087,84.91163976372864,14.55741352887819,18.926092392694176,9.670180136380795,0.0007151424495705208,2.681643193561689e-08,0
2024-02-06 10:25:26.205819,1.356778860092163,8.935118675231934,2.459909439086914,0,7.5034e-05,7.366035754403471e-05,2.7618287192778596e-09,0.0006970765660104751,2.6153127721101442e-08,0.00014358635416334868,5.385559423959483e-09,8.634283575531333,74.60734494549791,61.120785477824704,9.366341284844385,-4049.3489822801675,81.36571642446867,15.39265505450209,28.879214522175293,9.366341284844385,0.0007155128428312058,2.68443297137379e-08,0
2024-02-06 10:25:26.280797,1.3854937553405762,9.394556999206545,2.2804415225982666,0,7.4978e-05,7.358357391080259e-05,2.757705889197124e-09,0.0006965633350915907,2.6114105803870585e-08,0.0001434536243364215,5.377522304561489e-09,8.389412909810167,76.35588010088792,58.71901563439589,9.766151119833172,5332.36195935857,81.61058709018984,13.644119899112098,31.28098436560411,9.766151119833172,0.0007149782965088251,2.6804275961926602e-08,0
2024-02-06 10:25:26.370714,1.0480937957763672,9.4950590133667,2.9815635681152344,0,8.9917e-05,9.17612561238706e-05,3.992749097141116e-09,0.0008376593218975066,3.7573981940250644e-08,0.000182758171361506,7.814161312527159e-09,6.298983671729206,72.56707953127737,70.63215600544584,10.007215775767662,2680.9686258937736,83.7010163282708,17.43292046872263,19.36784399455417,10.007215775767662,0.0008622608751918544,3.858506552044714e-08,0
2024-02-06 10:25:26.445659,0.2368979007005691,10.818337440490724,2.7638089656829834,0,7.4945e-05,8.214180828404425e-05,2.6909107569834645e-09,0.0006855932360439299,2.6170913291501047e-08,0.0001397483125734925,5.399877773789759e-09,1.2544516255604146,75.66892600080511,85.10090776525435,11.16831167144208,15492.639878236278,88.74554837443958,14.331073999194887,4.899092234745653,11.16831167144208,0.0007044962404757736,2.6857333880807755e-08,0
2024-02-06 10:25:26.520602,0.509689450263977,10.114822387695312,2.577162027359009,0,7.494299999999999e-05,8.214106169669328e-05,2.6907464741134834e-09,0.0006855723028841017,2.6169542125962116e-08,0.00013974297160249946,5.399598282505583e-09,2.8847144803765516,75.70571200647117,78.81288735408874,10.450415273356073,-9579.232190945206,87.11528551962344,14.294287993528838,11.187112645911261,10.450415273356073,0.0007044747224782216,2.685592510569869e-08,0
2024-02-06 10:25:26.595731,-0.3254354894161224,8.399106979370117,1.4285660982131958,0,7.5129e-05,8.215819731505214e-05,2.706026305201577e-09,0.0006872940983152388,2.6297218701273665e-08,0.0001401155043181777,5.4256251207662085e-09,-2.2188974914525126,80.34719496547771,102.83329954602026,8.525943197420412,-25615.568900633058,92.21889749145252,9.652805034522286,-12.833299546020257,8.525943197420412,0.000706226239611184,2.6987102433165173e-08,0
2024-02-06 10:25:26.670732,-1.0863802433013916,8.437394142150879,1.4812101125717163,0,7.5001e-05,8.224855352194607e-05,2.695504273148008e-09,0.0006862165622434614,2.62093140189979e-08,0.00013992927864068744,5.40770225465684e-09,-7.336910631769163,80.0430126184579,126.25784949478611,8.635034761981116,1454.5348003453735,97.33691063176917,9.956987381542097,-36.25784949478611,8.635034761981116,0.0007051511879551717,2.689678657959013e-08,0
2024-02-06 10:25:26.745755,-0.8327320218086243,10.445043563842772,2.5963053703308105,0,7.5023e-05,8.222744328702986e-05,2.6973135091129073e-09,0.0006864242690582275,2.6224413068142225e-08,0.00013997413131099939,5.4107811921663094e-09,-4.558269812775767,76.04099453749242,107.78298455803488,10.795053461967077,28791.419964357083,94.55826981277578,13.959005462507578,-17.78298455803489,10.795053461967077,0.000705359757157943,2.691230005117534e-08,0
2024-02-06 10:25:26.820704,-0.923662543296814,8.743685722351074,2.814059972763061,0,7.4949e-05,8.229242988593875e-05,2.6912262738055074e-09,0.0006857142860746383,2.617364394160231e-08,0.0001397739477933049,5.40043051323945e-09,-6.030227653612446,72.1597945044295,108.17145452729082,9.231691396241688,-20859.01167094143,96.03022765361244,17.84020549557051,-18.17145452729081,9.231691396241688,0.0007046367025816272,2.686013748600189e-08,0
2024-02-06 10:25:26.895620,-1.1868823766708374,8.76761531829834,2.6298060417175293,0,7.4916e-05,8.232725387711822e-05,2.6885100490234168e-09,0.0006854253496074676,2.6151020137613552e-08,0.00013968412400406597,5.395819455054793e-09,-7.7093327827172855,73.30362490716315,114.29057804930734,9.230148859187784,-20.59022176710141,97.70933278271728,16.69637509283684,-24.29057804930735,9.230148859187784,0.0007043417786233115,2.6836892668733414e-08,0
2024-02-06 10:25:26.970713,-0.8734114766120911,9.29644775390625,2.814059972763061,0,7.5093e-05,8.214491787110268e-05,2.7030658362231338e-09,0.0006870240191893576,2.627248190675207e-08,0.00014016590614634747,5.4205861827231035e-09,-5.367246526139318,73.15879363083654,107.24299192402515,9.752216259850552,6952.27785096838,95.36724652613933,16.841206369163466,-17.242991924025137,9.752216259850552,0.0007059718632643767,2.6961688096628893e-08,0
2024-02-06 10:25:27.090752,-0.5958341360092163,8.86333179473877,3.218461275100708,0,0.00012003900000000001,4.9126561218664034e-05,5.653129785807462e-09,0.0010951287449860573,6.632280097606618e-08,0.00027573475614959,1.476712176649971e-08,-3.845900726198658,70.04298100602598,100.48842682823819,9.448394667909671,-2531.024016701916,93.84590072619866,19.957018993974017,-10.48842682823818,9.448394667909671,0.00113037606258306,6.818166682439422e-08,0
2024-02-06 10:25:27.135882,-0.6915504336357117,9.181588172912598,2.735093832015991,0,4.513e-05,9.734490658243e-05,1.671141950513845e-10,0.00041926529005765914,9.601929590521297e-09,5.274732639008758e-05,2.4639896060173516e-09,-4.307342869667688,73.41178636071483,104.18947237529704,9.605235116808029,3475.3035430613218,94.30734286966769,16.58821363928518,-14.189472375297028,9.605235116808029,0.0004336377459654285,9.9144452085872e-09,0
2024-02-06 10:25:27.210759,-0.5240468978881836,9.246196746826172,3.0102784633636475,0,7.4877e-05,7.926471967200936e-05,2.7939174711467874e-09,0.0006933509490613936,2.6150427223058523e-08,0.0001382011212254166,5.304061341626553e-09,-3.2438837091861688,71.96633732424148,99.87541731049951,9.737995474387741,1773.0458963328222,93.24388370918618,18.033662675758524,-9.875417310499515,9.737995474387741,0.0007114196962813018,2.6828788371818e-08,0
2024-02-06 10:25:27.285774,-0.1938255578279495,8.93272590637207,3.761651515960693,0,7.5015e-05,7.921518647256493e-05,2.8048525846707632e-09,0.0006946052947244644,2.624619620387975e-08,0.00013866838439399,5.323165337514292e-09,-1.243029749023698,67.1636012356576,92.94965488645188,9.694389232580226,-581.3002973740577,91.24302974902369,22.836398764342405,-2.949654886451883,9.694389232580226,0.0007127274949499161,2.692705149853581e-08,0
2024-02-06 10:25:27.360729,0.648478090763092,11.40699291229248,2.0626866817474365,0,7.495499999999999e-05,7.920154689657688e-05,2.800100082669688e-09,0.0006939951031599043,2.620453819194321e-08,0.00013849365424805873,5.314850476355029e-09,3.253715433497431,79.75016370575065,72.54762590603265,11.610111432813593,25558.297648367243,86.74628456650258,10.249836294249352,17.452374093967347,11.610111432813593,0.0007120973111223758,2.6884308023677837e-08,0
2024-02-06 10:25:27.434941,0.9571632146835328,10.210538864135742,2.799702405929565,0,7.4212e-05,7.860505115160347e-05,2.7414749314947897e-09,0.0006859641901049613,2.569188331449532e-08,0.00013668727670198674,5.212620760507089e-09,5.355408942841214,74.66651414913134,71.12545026046595,10.630597296358165,-13198.864556344368,84.64459105715879,15.333485850868664,18.874549739534046,10.630597296358165,0.0007038529930213462,2.6358299797948407e-08,0
2024-02-06 10:25:27.510116,0.8159816861152649,8.762829780578613,1.3902796506881714,0,7.517500000000001e-05,7.945882042133811e-05,2.817582685657162e-09,0.0006950998671073914,2.6356865658043078e-08,0.0001387047530622482,5.34522202283857e-09,5.319956681037506,80.98479584047867,59.59051331591606,8.909875946531947,-22889.542398752466,84.6800433189625,9.015204159521334,30.409486684083944,8.909875946531947,0.0007132436735909566,2.704060905342341e-08,0
2024-02-06 10:25:27.585838,2.072258472442627,7.9994916915893555,1.275420069694519,0,7.572199999999999e-05,8.024875410470366e-05,2.8612627072900326e-09,0.0006996843620300292,2.6738339144712148e-08,0.00013943382193577284,5.421292923100526e-09,14.52315385572543,80.941142469948,31.611193845701415,8.361388572156956,-7243.434858759558,75.47684614427457,9.058857530052002,58.388806154298585,8.361388572156956,0.000717941404088344,2.7432025471259583e-08,0
2024-02-06 10:25:27.660114,1.3424214124679563,10.725013732910156,1.3400285243988037,0,7.427599999999999e-05,7.77799405479133e-05,2.7470079610561905e-09,0.0006861465446081161,2.5736383399212768e-08,0.00013754285260224336,5.22103878740954e-09,7.1344563773718175,82.87813020467087,44.948889129687544,10.891450374764894,34062.97865539256,82.8655436226282,7.121869795329143,45.051110870312456,10.891450374764894,0.000704105699544647,2.6403915036013418e-08,0
2024-02-06 10:25:27.735781,1.7635732889175415,8.652755737304688,2.17036771774292,0,7.566699999999999e-05,7.994015986272692e-05,2.856702290891791e-09,0.0006996237832746506,2.670018666225523e-08,0.00013998433318865292,5.414058945127108e-09,11.520029312146887,75.91902587879521,50.90376361712206,9.093451964191773,-23761.98885343836,78.47997068785311,14.080974121204791,39.09623638287795,9.093451964191773,0.0007179550688035327,2.7392932483386467e-08,0
2024-02-06 10:25:27.810018,1.928683876991272,9.310805320739746,2.184725046157837,0,7.4237e-05,7.730019598910214e-05,2.7442754364577338e-09,0.0006867798371181489,2.5708908073674386e-08,0.0001368704418624639,5.216107780965561e-09,11.703002146090714,76.79477756770882,48.56180874751411,9.756225742847027,8927.80929530091,78.29699785390929,13.205222432291183,41.4381912524859,9.756225742847027,0.000704539127960691,2.6375875007180987e-08,0
2024-02-06 10:25:27.915711,0.6125844717025757,9.449594497680664,2.225404500961304,0,0.00010569299999999999,0.00011726926457735897,5.8044639122470335e-09,0.000981843405462265,5.195301443297913e-08,0.0002062329593795537,1.0612438075700011e-08,3.7090968842563785,76.74815962574812,74.60943036822205,9.727410811642871,-272.62856768334825,86.29090311574363,13.251840374251897,15.390569631777957,9.727410811642871,0.0010100992955144068,5.33425847882579e-08,0
2024-02-06 10:25:27.975033,0.2536482512950897,9.195945739746094,3.0892443656921387,0,5.9322e-05,9.71852257782966e-05,8.322293261059822e-10,0.0005495372322874069,1.6447188656434118e-08,8.301016808176032e-05,3.906191543945716e-09,1.5799669557357146,71.43097371999706,85.30615069125629,9.704287002902378,-389.8015700834976,88.42003304426429,18.569026280002948,4.6938493087437125,9.704287002902378,0.0005642045956784151,1.6925157391574204e-08,0
2024-02-06 10:25:28.050768,0.2584340870380401,9.016477584838867,2.818845748901367,0,7.573499999999999e-05,0.00010138762948782742,2.461817462847428e-09,0.0006989974843006133,2.66932888081137e-08,0.0001314949096071719,5.666527463999937e-09,1.641786324839533,72.6390488135575,84.76171981912339,9.450372880016122,-3352.665516422471,88.35821367516047,17.360951186442513,5.238280180876614,9.450372880016122,0.000718448220628561,2.7398936952261748e-08,0
2024-02-06 10:25:28.125003,-0.3780794739723205,12.59387493133545,3.077279806137085,0,7.4235e-05,0.00010147736352802813,2.309668718085537e-09,0.0006827897199134826,2.565694840495313e-08,0.00012707281544089308,5.472601670213889e-09,-1.7195544697786602,76.26898192908635,97.00434756124034,12.969899031219084,47410.60350512511,91.71955446977866,13.731018070913656,-7.004347561240334,12.969899031219084,0.0007018881373496825,2.633558315440457e-08,0
2024-02-06 10:25:28.200408,1.0696299076080322,11.567317962646484,1.0313433408737185,0,7.5405e-05,0.00010188192053170503,2.4286338992604812e-09,0.0006969240177564621,2.646408094149005e-08,0.0001294763599818944,5.62268293783622e-09,5.283116873400986,84.90497451073419,43.95600007881594,11.662359198506028,-17340.227209244164,84.71688312659901,5.095025489265808,46.04399992118407,11.662359198506028,0.000716133465250158,2.7163586031925328e-08,0
2024-02-06 10:25:28.275803,-1.1844894886016846,5.941590785980225,0.8949476480484009,0,7.5395e-05,0.00010188249482961,2.4276150771836754e-09,0.0006968364732127191,2.645711213903521e-08,0.0001294667285269498,5.621388222393676e-09,-11.274427590097558,81.43425782803988,142.926925622231,6.124250787598459,-73454.5846661923,101.27442759009756,8.565742171960123,-52.92692562223102,6.124250787598459,0.0007160466094799395,2.7156437602294598e-08,0
2024-02-06 10:25:28.350747,-0.5025107264518738,10.722620964050291,1.5482115745544434,0,7.494399999999999e-05,0.00010226291337810459,2.3815802876328343e-09,0.000693078693463087,2.6143686268949807e-08,0.00012891579612225285,5.563122963085279e-09,-2.683177305255958,81.78399127227834,107.98213295546827,10.845463404044768,62996.53896838051,92.68317730525597,8.216008727721661,-17.98213295546828,10.845463404044768,0.0007123447629307818,2.6834913703944023e-08,0
2024-02-06 10:25:28.425836,0.382865309715271,9.404129028320312,2.964813232421875,0,7.5089e-05,0.00010225423908539119,2.3964077811864384e-09,0.0006945378828375339,2.6244288470731608e-08,0.00012924299042075865,5.581839475109648e-09,2.3313651217900904,72.50164734455375,82.64175150016425,9.867844046691454,-13019.474987725418,87.66863487820991,17.498352655446254,7.358248499835758,9.867844046691454,0.000713822492416901,2.6938121306330906e-08,0
2024-02-06 10:25:28.500758,-0.6987291574478149,7.78652286529541,3.1227450370788574,0,7.4922e-05,0.00010228061371667686,2.3793291209774658e-09,0.0006931024634044171,2.6128420501820404e-08,0.00012873467930525533,5.560298339687526e-09,-5.127743170389431,68.14700002586312,102.6124579029578,8.418414181651828,-19345.851219129574,95.12774317038944,21.85299997413688,-12.612457902957809,8.418414181651828,0.0007123376772116988,2.6819255817643636e-08,0
2024-02-06 10:25:28.575776,-0.7346227765083313,9.430450439453123,3.1083877086639404,0,7.5018e-05,0.00010221181282384695,2.389144757451412e-09,0.0006939288781230451,2.6194998006213728e-08,0.00012903377367705102,5.572671225430678e-09,-4.454289254538266,71.75717048366741,103.29705073792785,9.956663108799026,20505.06447982081,94.45428925453827,18.242829516332602,-13.297050737927838,9.956663108799026,0.0007131859906947033,2.6887554701094368e-08,0
2024-02-06 10:25:28.665074,-0.9404128789901732,8.667113304138184,3.563040256500244,0,8.9298e-05,9.025205824358764e-05,3.7633367968728935e-09,0.000823145483252287,3.7026908946433595e-08,0.00017666776934832328,7.75538024263185e-09,-6.192571628529659,67.65249291250001,104.7852237794223,9.417987326344255,-6032.338713686429,96.19257162852966,22.3475070875,-14.785223779422298,9.417987326344255,0.0008467144863189464,3.801710947299895e-08,0
2024-02-06 10:25:28.739961,-0.6939433217048645,8.853759765625,3.137102603912353,0,7.488699999999999e-05,0.00010202841184769574,2.3778598696301505e-09,0.0006968988323481082,2.6074229630374942e-08,0.0001283898899676203,5.557287278430816e-09,-4.48158814604019,70.48952464561786,102.47326533369167,9.418706496574384,9.603405532719915,94.4815881460402,19.51047535438214,-12.473265333691666,9.418706496574384,0.0007159341751852732,2.6765707729707597e-08,0
2024-02-06 10:25:28.815002,0.12921704351902,9.260554313659668,3.9363338947296143,0,7.5041e-05,0.00010198492792427543,2.3935688967925936e-09,0.0006982936345322132,2.6181659450324735e-08,0.00012893454457801578,5.577101259890831e-09,0.7994241540467921,66.9713726065298,88.11984100126251,10.063264270174649,8589.40810490619,89.20057584595321,23.028627393470206,1.8801589987374876,10.063264270174649,0.0007173834695178501,2.6875872490015043e-08,0
2024-02-06 10:25:28.890115,-0.2943277060985565,8.604897499084473,4.376628875732422,0,7.5113e-05,0.00010197898394042257,2.4009115976197223e-09,0.0006989367907974719,2.62319597456366e-08,0.00012923381123775238,5.586395320700198e-09,-1.959019655695758,63.04116972730791,93.84734055873732,9.65845588508962,-5389.325217805569,91.95901965569576,26.958830272692087,-3.847340558737318,9.65845588508962,0.0007180624824225431,2.6927456271906285e-08,0
2024-02-06 10:25:28.965021,-0.0430723465979099,12.244510650634766,2.565197467803955,0,7.4906e-05,0.00010201390484587665,2.379798333630341e-09,0.0006967788770539761,2.608750317401398e-08,0.00012851533221119638,5.559718284353233e-09,-0.20154774372479373,78.1677848468625,90.96196562440659,12.510401046704198,38073.654468461515,90.2015477437248,11.832215153137494,-0.961965624406587,12.510401046704198,0.0007158378523826871,2.6779315326652974e-08,0
2024-02-06 10:25:29.040141,1.0648441314697266,9.341913223266602,3.3955366611480717,0,7.512000000000001e-05,0.00010212323442685794,2.401641007532524e-09,0.0006990886244084836,2.623686099667047e-08,0.00012915313076299428,5.587288809891472e-09,6.502830906608199,70.02514219928057,72.58851632968866,9.99674471578471,-33461.8787396098,83.4971690933918,19.974857800719438,17.411483670311334,9.99674471578471,0.0007182162564110004,2.6932481332636407e-08,0
2024-02-06 10:25:29.115655,0.9380199909210204,8.927940368652344,1.4285660982131958,0,7.5514e-05,0.0001025177986589689,2.44195529105043e-09,0.0007026877855660915,2.651301094943545e-08,0.00013010347900658842,5.6383623620160775e-09,5.997814217459042,80.90912462806455,56.71043900711766,9.09003860423836,-12007.125983875161,84.00218578254096,9.09087537193546,33.28956099288234,9.09003860423836,0.0007219466311821644,2.7215694467967792e-08,0
2024-02-06 10:25:29.205118,2.002864122390747,8.841794967651367,1.2802058458328247,0,8.946300000000001e-05,0.00012302899490726184,4.0150314027781076e-09,0.0008266228046691418,3.717918766103109e-08,0.0001489958089303374,7.584940345732168e-09,12.763377333536688,81.76138253895363,32.58620806699084,9.155748464787006,734.4920307685377,77.23662266646332,8.238617461046372,57.41379193300916,9.155748464787006,0.0008489058521801901,3.815683152920033e-08,0
2024-02-06 10:25:29.265752,1.9693633317947388,9.507023811340332,1.0935590267181396,0,6.0634e-05,6.577132226890514e-05,1.2935692308422483e-09,0.0005621337563793659,1.7160956211797376e-08,0.00011477917517495151,3.782755837346481e-09,11.703197677603905,83.43830893631723,29.042781767665737,9.77024897466418,10134.586368657403,78.2968023223961,6.561691063682786,60.95721823233427,9.77024897466418,0.0005774898145837887,1.7620470515374655e-08,0
2024-02-06 10:25:29.340355,1.6415349245071411,9.51180934906006,1.1198810338974,0,7.4603e-05,9.099164114004563e-05,2.388480148772065e-09,0.0006949707965881824,2.594120296199922e-08,0.00013023894727832075,5.494084913621361e-09,9.7915779957221,83.28514488982103,34.302425498275404,9.717164582908234,-711.5584059078743,80.2084220042779,6.714855110178969,55.6975745017246,9.717164582908234,0.0007128997617168467,2.662397073268368e-08,0
2024-02-06 10:25:29.430747,1.6176059246063232,9.35866355895996,1.1844894886016846,0,9.0392e-05,0.00011672092857337187,4.028267030374638e-09,0.0008439437449605464,3.809016381025565e-08,0.00014843080036818976,7.694043236416737e-09,9.806444305027144,82.78665065995015,36.21339668035431,9.571010807941576,-1616.8883857715057,80.19355569497286,7.213349340049842,53.7866033196457,9.571010807941576,0.0008648101076669972,3.906770809356447e-08,0
2024-02-06 10:25:29.505187,1.1557745933532717,9.631455421447754,1.4357448816299438,0,7.444000000000001e-05,9.460044556212617e-05,2.3427677502699077e-09,0.0006924785559728146,2.5835659538011175e-08,0.0001275318110312223,5.4929654478950285e-09,6.842773077068913,81.52144817724279,51.165935926654775,9.806228215328401,3159.825461940155,83.15722692293109,8.478551822757215,38.83406407334523,9.806228215328401,0.0007104506721846709,2.6516834914964895e-08,0
2024-02-06 10:25:29.580373,1.32806396484375,9.980819702148438,1.6702498197555542,0,7.518600000000001e-05,9.552691734433365e-05,2.413685256634017e-09,0.0006997939345939159,2.6354977176992563e-08,0.0001286903470548391,5.588536312861129e-09,7.579346312380246,80.49981343146753,51.51077419849028,10.206382820661998,5322.195692463984,82.42065368761975,9.500186568532483,38.489225801509725,10.206382820661998,0.000717912354160896,2.7048889748713506e-08,0
2024-02-06 10:25:29.655028,1.268241286277771,9.100229263305664,1.6654640436172483,0,7.4655e-05,9.483759830016088e-05,2.3631434777304025e-09,0.0006947279160935877,2.5984731625635023e-08,0.0001278047150241136,5.520436873879165e-09,7.933848729940498,79.62887705011029,52.710936565909726,9.337900143261662,-11633.28212980158,82.0661512700595,10.371122949889722,37.289063434090274,9.337900143261662,0.0007127237140950738,2.666956970089884e-08,0
2024-02-06 10:25:29.730008,0.4929390549659729,9.538131713867188,1.801859736442566,0,7.498e-05,9.512379010561299e-05,2.3940122033463413e-09,0.0006977566497523784,2.6211010367584998e-08,0.00012836815513837333,5.56206496528057e-09,2.958464331509295,79.3022559691588,74.69982216741879,9.719343805669322,5087.27210466338,87.04153566849071,10.697744030841218,15.300177832581221,9.719343805669322,0.0007158151025029785,2.6901392633048218e-08,0
2024-02-06 10:25:29.805721,0.067001424729824,11.02652072906494,2.4623024463653564,0,7.5713e-05,9.53290082914215e-05,2.463813153958854e-09,0.000705293594872713,2.672522828224009e-08,0.00012993097057837242,5.656731594855757e-09,0.3481471360285632,77.41196183363594,88.44131584917906,11.298299956931196,20854.491979737613,89.65185286397144,12.588038166364068,1.5586841508209408,11.298299956931196,0.000723469924672573,2.742821201485262e-08,0
2024-02-06 10:25:29.880710,0.0191432647407054,8.595325469970703,1.521889567375183,0,7.4989e-05,9.529782391383316e-05,2.3948062407005514e-09,0.000698190486548662,2.6217167044765552e-08,0.00012848869306939835,5.563183676615263e-09,0.12760732168332506,79.95926461032296,89.27933638718358,8.729039709761746,-34261.82836375268,89.87239267831669,10.040735389677044,0.7206636128164299,8.729039709761746,0.0007162827479399818,2.690769327540727e-08,0
2024-02-06 10:25:29.955723,-0.2249333560466766,9.959283828735352,1.5362470149993896,0,7.5013e-05,9.529535443273749e-05,2.3970933588407102e-09,0.0006984131418602465,2.623392628830646e-08,0.00012852539070838683,5.566267845620596e-09,-1.2938220800240807,81.2310809854682,98.32991218329727,10.079582545277677,18004.117093249584,91.29382208002409,8.768919014531805,-8.329912183297267,10.079582545277677,0.0007165060344172304,2.692486365425988e-08,0
2024-02-06 10:25:30.030712,-0.2751844227313995,9.413700103759766,1.6343562602996826,0,7.4989e-05,9.530135584608283e-05,2.3948061983173645e-09,0.0006981806660530565,2.62171671626115e-08,0.00012848734346908324,5.563183692810467e-09,-1.674412509769291,80.1507885898216,99.5575199652137,9.558482959948268,-6949.013659728886,91.6744125097693,9.849211410178405,-9.557519965213697,9.558482959948268,0.000716273403323154,2.6907693389805194e-08,0
2024-02-06 10:25:30.105672,-1.1533817052841189,8.889653205871582,2.110544919967652,0,7.496e-05,9.532207005493904e-05,2.3920421586418e-09,0.0006979152674300669,2.6196923771575995e-08,0.00012843304240196937,5.559458347215337e-09,-7.392503800217929,76.64434352061248,118.655954460829,9.209268338904469,-4658.679576358049,97.39250380021794,13.35565647938753,-28.65595446082899,9.209268338904469,0.000716007726167928,2.688695330261325e-08,0
2024-02-06 10:25:30.194965,-1.4022440910339355,9.942533493041992,1.8521108627319336,0,8.9293e-05,7.700717778562572e-05,3.6270397132912074e-09,0.0008328761334078311,3.716734034568079e-08,0.00015683141506868595,7.603806081678789e-09,-8.027756953557278,79.44779890607178,127.12957908308964,10.210317105700048,11210.831384269528,98.02775695355729,10.552201093928229,-37.12957908308965,10.210317105700048,0.0008510046132561989,3.811016232425726e-08,0
2024-02-06 10:25:30.269992,-1.5266753435134888,9.05237102508545,2.2852272987365723,0,7.5027e-05,9.78991601122525e-05,2.379432805065642e-09,0.000697385479480028,2.625198426095169e-08,0.0001273197819629311,5.576955593252264e-09,-9.572808627185728,75.83197597497154,123.7454112281511,9.460360594987353,-9995.82164704299,99.57280862718572,14.168024025028453,-33.7454112281511,9.460360594987353,0.0007156403282511134,2.69431032325563e-08,0
2024-02-06 10:25:30.344958,-1.6343562602996826,9.363449096679688,2.129688262939453,0,7.4966e-05,9.79955715761688e-05,2.3734580157491454e-09,0.0006968237969663142,2.6209460878020077e-08,0.00012718512703829997,5.569193193527727e-09,-9.90102605148138,77.18624046389266,127.50319990816033,9.740681263083937,3739.304059127924,99.90102605148138,12.813759536107339,-37.50319990816033,9.740681263083937,0.0007150822278639286,2.6899536339792634e-08,0
2024-02-06 10:25:30.420688,-1.555390238761902,9.37541389465332,1.9262909889221191,0,7.573000000000001e-05,9.677708841352726e-05,2.44786117186521e-09,0.0007039820426290034,2.6744568708745495e-08,0.00012873451111251112,5.666954495301338e-09,-9.419631313518295,78.38947476326045,128.91925905385148,9.69681501653491,-579.2452997362711,99.4196313135183,11.610525236739546,-38.9192590538515,9.69681501653491,0.000722169713805059,2.7447738576890994e-08,0
2024-02-06 10:25:30.495709,-1.6008554697036743,9.286876678466797,2.10097336769104,0,7.5021e-05,9.789597751717832e-05,2.3788495699927736e-09,0.0006973662606208323,2.6247790735243422e-08,0.00012730684589809174,5.576187834241078e-09,-9.78042885986705,77.25253710348633,127.30591278385155,9.655200969823346,-554.6986405348308,99.78042885986706,12.747462896513678,-37.305912783851554,9.655200969823346,0.0007156188628584681,2.69388068503511e-08,0
2024-02-06 10:25:30.570140,-1.2443121671676636,9.332341194152832,2.491017341613769,0,7.443099999999999e-05,9.873530197005537e-05,2.320843342544039e-09,0.0006918735913484094,2.583796497891249e-08,0.00012595220863884682,5.50147641315268e-09,-7.59464341653143,75.05486716311565,116.54303036552633,9.738894820751682,1124.4488308411285,97.59464341653143,14.945132836884353,-26.54303036552633,9.738894820751682,0.0007101420175721667,2.6518917602281858e-08,0
2024-02-06 10:25:30.645697,-1.387886643409729,9.492666244506836,2.6561279296875,0,7.5557e-05,9.72533740397003e-05,2.431184967137532e-09,0.0007024720705363749,2.6622981586553627e-08,0.00012885005142658943,5.644930085569521e-09,-8.318062558888657,74.36793284037523,117.58808098358911,9.954494328865763,2853.468349909096,98.31806255888866,15.632067159624771,-27.58808098358911,9.954494328865763,0.0007207826055048792,2.732323268892934e-08,0
2024-02-06 10:25:30.720673,-1.0552724599838257,9.710420608520508,2.5532329082489014,0,7.4976e-05,9.796311175923613e-05,2.3744745780129406e-09,0.0006968935738055705,2.6216465866872293e-08,0.00012733673210316892,5.570507824954126e-09,-6.202234698907532,75.26825210986057,112.45571602620858,10.095784597689535,1884.4732824340033,96.20223469890755,14.731747890139433,-22.455716026208584,10.095784597689535,0.0007151727538292877,2.6906723499868667e-08,0
2024-02-06 10:25:30.795699,-1.0696299076080322,9.38259220123291,2.550840139389038,0,7.5026e-05,9.790998920004633e-05,2.3793714055369227e-09,0.0006973708991258144,2.625132247869558e-08,0.00012746433392935987,5.57687785160494e-09,-6.503728853835988,74.79063844518055,112.74950072415565,9.78181629200858,-4184.793347385643,96.503728853836,15.209361554819468,-22.749500724155652,9.78181629200858,0.0007156533332254908,2.6942436911639532e-08,0
2024-02-06 10:25:30.885358,-0.4139730930328369,9.229446411132812,2.0674726963043213,0,8.9659e-05,8.70552078458574e-05,3.732669269723278e-09,0.0008335458796331883,3.745227509048583e-08,0.00016125421979171036,7.68928714990515e-09,-2.568195640411433,77.37370972196804,101.32268396345656,9.467232865399023,-3508.6653499320455,92.56819564041143,12.626290278031963,-11.322683963456557,9.467232865399023,0.0008534519705684581,3.8415242628470516e-08,0
2024-02-06 10:25:30.945812,-0.1866468340158462,9.083478927612305,2.2589051723480225,0,6.0454e-05,9.58257603305858e-05,1.0621499319267654e-09,0.0005661313873741628,1.7013487799010985e-08,9.80782869647145e-05,3.902384219994457e-09,-1.1771449284536297,76.03480792444749,94.72345549345683,9.362001871751874,-1740.6787581822405,91.17714492845364,13.965192075552508,-4.72345549345682,9.362001871751874,0.0005825003643664629,1.7487582227553624e-08,0
2024-02-06 10:25:31.035683,-0.0095716323703527,9.526166915893556,2.493410348892212,0,8.987100000000001e-05,9.29396810177444e-05,3.838606425998681e-09,0.0008398513632633688,3.769338508676312e-08,0.0001679777198088765,7.81566899562382e-09,-0.05756921521113853,75.33226454471861,90.21994432015529,9.847082963678837,5397.5263647557385,90.05756921521115,14.667735455281404,-0.21994432015528229,9.847082963678837,0.0008615129778681274,3.868605511604782e-08,0
2024-02-06 10:25:31.110571,0.0957163274288177,9.56684684753418,2.325906753540039,0,7.488799999999999e-05,9.22943280347139e-05,2.4509258471821884e-09,0.0006968160506546498,2.618144115539627e-08,0.00013187380573600525,5.5693312920043355e-09,0.5732252959502315,76.33527538727797,87.6434786511946,9.84599220219447,-14.565237212460064,89.42677470404978,13.664724612722026,2.3565213488054093,9.84599220219447,0.0007151654019012808,2.6879217799667495e-08,0
2024-02-06 10:25:31.185694,0.1340028494596481,9.370628356933594,2.2110471725463867,0,7.512299999999999e-05,9.23213200379983e-05,2.4726181858307323e-09,0.0006990412039911747,2.6345454382817154e-08,0.0001324068978223204,5.600384274672439e-09,0.8192913134406296,76.72360277149457,86.53177098590902,9.628881667496836,-2890.067418735057,89.18070868655937,13.276397228505436,3.4682290140909933,9.628881667496836,0.0007174353055167553,2.7047386405233292e-08,0
2024-02-06 10:25:31.260509,0.1866468340158462,9.066728591918944,2.263690948486328,0,7.481500000000001e-05,9.227193998674308e-05,2.4441908237869238e-09,0.0006962018510210516,2.6130586952345283e-08,0.0001317177881516814,5.559709073032445e-09,1.1793190322757046,75.98154842501049,85.28648554536954,9.346908639246857,-3768.9370881504915,88.8206809677243,14.018451574989527,4.71351445463046,9.346908639246857,0.0007145353063282645,2.6827076028406842e-08,0
2024-02-06 10:25:31.335583,0.4977248907089233,9.30601978302002,2.4264087677001958,0,7.5074e-05,9.236056612509494e-05,2.468100733328407e-09,0.0006985811219356062,2.631121134734317e-08,0.00013232515606492756,5.593902634308496e-09,3.061501137248639,75.38632368197031,78.4078242433917,9.63001525319475,3771.034098994239,86.93849886275136,14.6136763180297,11.592175756608306,9.63001525319475,0.0007169769905843324,2.7012277032426194e-08,0
2024-02-06 10:25:31.410774,0.7776951193809509,9.96646213531494,2.4192299842834477,0,7.519099999999999e-05,9.243517819568518e-05,2.478911284371171e-09,0.0006997085621278287,2.639301129386087e-08,0.00013260862593191856,5.60940126055531e-09,4.461817962937673,76.35607664252967,72.17927618092277,10.285322110183593,8715.229974183641,85.53818203706233,13.64392335747033,17.820723819077227,10.285322110183593,0.0007181374393210628,2.7096151549907777e-08,0
2024-02-06 10:25:31.485520,0.6389064788818359,8.813080787658691,3.0892443656921387,0,7.4746e-05,9.211998434007172e-05,2.4378477607069662e-09,0.0006955301138274672,2.6082570688460827e-08,0.00013138299038904902,5.550663125923896e-09,4.146417989899554,70.68293349601905,78.31503330748052,9.360663716292587,-12370.67393427081,85.85358201010044,19.317066503980964,11.68496669251948,9.360663716292587,0.0007137994963007703,2.6777853845303418e-08,0
2024-02-06 10:25:31.560515,0.98109233379364,9.633848190307615,2.318727970123291,0,7.499500000000001e-05,9.232167419224982e-05,2.4608107471942407e-09,0.000697826756485224,2.625604361881476e-08,0.00013205628294485805,5.583461315453968e-09,5.814843978084211,76.46713308672813,67.06597059144129,9.957412943167219,7957.186837450921,84.18515602191579,13.532866913271873,22.934029408558718,9.957412943167219,0.0007161873605821039,2.6955712869590018e-08,0
2024-02-06 10:25:31.635741,1.4429235458374023,9.243803977966309,1.890397429466248,0,7.5226e-05,9.26016480263472e-05,2.482169390910488e-09,0.0007000071253106595,2.6417493432162178e-08,0.00013254243692851063,5.614022467599341e-09,8.872062141901171,78.4421338950307,52.6458279405118,9.54481758775569,-5484.744043436168,81.12793785809883,11.557866104969317,37.35417205948821,9.54481758775569,0.0007184375674265908,2.712125314933318e-08,0
2024-02-06 10:25:31.710326,0.9667348861694336,9.181588172912598,1.8114314079284668,0,7.4585e-05,9.182935249888901e-05,2.42305925524215e-09,0.0006941017871263029,2.5970681525726135e-08,0.00013135600078612562,5.5294430183118e-09,6.010560782803853,78.83946937848832,61.911800949741234,9.40836975584693,-1829.4272562681397,83.98943921719615,11.16053062151169,28.088199050258773,9.40836975584693,0.0007123652994179443,2.6663125382405275e-08,0
2024-02-06 10:25:31.800713,0.4474738240242004,10.035856246948242,2.304370403289795,0,9.0387e-05,0.00010300301551812891,3.962429794944609e-09,0.0008459388154876232,3.813854232697876e-08,0.0001638749508965611,7.862062767556707e-09,2.5529851251710545,77.06825686765131,79.01079157531214,10.306734031115525,9939.08720577732,87.44701487482895,12.931743132348698,10.989208424687869,10.306734031115525,0.0008678001499687478,3.9141554538209345e-08,0
2024-02-06 10:25:31.875265,0.8303391337394714,9.629061698913574,1.5123178958892822,0,7.455199999999999e-05,9.288593142503503e-05,2.411479057522107e-09,0.0006902418276512622,2.5975832084926627e-08,0.0001336563212878107,5.506358920036942e-09,4.928572416911264,81.07417377656677,61.23098374157561,9.782402450151526,-7033.0987896233355,85.07142758308875,8.925826223433226,28.7690162584244,9.782402450151526,0.0007091724678216446,2.6662315584086874e-08,0
2024-02-06 10:25:31.950698,1.531461238861084,9.076300621032717,1.9310768842697144,0,7.5433e-05,9.392630448916558e-05,2.493769847442313e-09,0.0006984815397531986,2.6587564728268297e-08,0.00013517313668847075,5.624778296275495e-09,9.577413288568914,77.98882905853368,51.58344726202523,9.404980830520264,-5003.401954466372,80.42258671143108,12.011170941466325,38.416552737974776,9.404980830520264,0.0007176143734159666,2.7290211012634564e-08,0
2024-02-06 10:25:32.024963,2.1033661365509038,9.468737602233888,1.591283917427063,0,7.4265e-05,9.180356530192498e-05,2.3853036034843163e-09,0.0006876512374308109,2.5778063186392834e-08,0.00013311607798027983,5.468097394908944e-09,12.524207423017533,80.46020993576803,37.10902017367324,9.82920777022284,5712.340129301504,77.47579257698247,9.539790064231964,52.89097982632676,9.82920777022284,0.0007064078207092006,2.6459370817210804e-08,0
2024-02-06 10:25:32.100707,1.4501023292541504,9.664956092834473,1.2443121671676636,0,7.574400000000001e-05,9.443135523238785e-05,2.523024327219442e-09,0.000701800603918314,2.6805562823070525e-08,0.00013521300128483765,5.666526749025501e-09,8.532846499699676,82.66382555767035,40.63242376964557,9.852029527518074,301.30118947023084,81.46715350030033,7.336174442329649,49.36757623035443,9.852029527518074,0.0007209188055721596,2.751387605218035e-08,0
2024-02-06 10:25:32.175271,1.0074143409729004,9.38498592376709,1.201239824295044,0,7.4564e-05,9.298142039695387e-05,2.4124507895981295e-09,0.0006905611381285191,2.5984069395262884e-08,0.00013377012560987465,5.507826704157619e-09,6.126851365979677,82.70603418984251,50.01527335879402,9.515031348302362,-4519.58289812392,83.87314863402032,7.293965810157487,39.98472664120598,9.515031348302362,0.0007095172137010295,2.667073182635043e-08,0
2024-02-06 10:25:32.250031,0.7418015003204346,9.56684684753418,1.4142086505889893,0,7.476e-05,9.315284354940061e-05,2.430691947464872e-09,0.0006924184177401066,2.6119601391738008e-08,0.00013402643956041328,5.534070767544307e-09,4.43377258447874,81.5912106632804,62.321430854672954,9.699217194055047,2463.69510102575,85.56622741552127,8.408789336719598,27.678569145327053,9.699217194055047,0.000711395673298828,2.6809844823626657e-08,0
2024-02-06 10:25:32.325170,0.8183745741844177,9.545310020446776,1.4213874340057373,0,7.5139e-05,9.344849691551929e-05,2.4660529014829746e-09,0.0006960401714665891,2.638271429439268e-08,0.00013456378501844397,5.584968615102001e-09,4.900314847909103,81.53034976550127,60.068488432897055,9.685196052102537,-186.6027223214284,85.09968515209091,8.469650234498731,29.931511567102948,9.685196052102537,0.0007150608044841351,2.7079898539029628e-08,0
2024-02-06 10:25:32.400381,0.8303391337394714,9.45438003540039,1.746822953224182,0,7.5211e-05,9.350785060900455e-05,2.472783329993857e-09,0.0006967241603085995,2.6432853810336584e-08,0.00013467784059238423,5.59466131362399e-09,5.019173075431543,79.53189260465078,64.57627424895988,9.650189395069278,-465.4459724409861,84.98082692456846,10.468107395349227,25.423725751040116,9.650189395069278,0.0007157558203953822,2.7131359220833032e-08,0
2024-02-06 10:25:32.490343,0.9499844908714294,9.763065338134766,1.4501023292541504,0,8.9962e-05,0.00010663862750232226,3.948963679303949e-09,0.0008384624286611081,3.775562249728267e-08,0.00015825676301330319,7.755200482517738e-09,5.557607884286117,81.55165664360564,56.7705711478918,9.915780962430194,2952.263926556948,84.44239211571389,8.448343356394362,33.2294288521082,9.915780962430194,0.0008599047878639307,3.874563819092186e-08,0
2024-02-06 10:25:32.565472,1.0265575647354126,10.29429054260254,1.679821491241455,0,7.5129e-05,9.197960334691412e-05,2.4759115702105875e-09,0.0006897070487716199,2.6421953567902843e-08,0.00013504368299859754,5.579937724670477e-09,5.694768853928914,80.73216361819776,58.570434714098006,10.480841495398558,7521.203968751927,84.3052311460711,9.267836381802251,31.429565285901997,10.480841495398558,0.0007087967669755124,2.711799169295391e-08,0
2024-02-06 10:25:32.639986,0.4139730930328369,10.043035507202148,0.7800880670547485,0,7.4514e-05,9.153664016965038e-05,2.4194803253292432e-09,0.0006834533210113049,2.599970675419459e-08,0.00013428726080942145,5.4971184594495095e-09,2.360391065918605,85.55849526365978,62.04623351170218,10.081789192055124,-5355.40037232511,87.6396089340814,4.441504736340223,27.953766488297827,10.081789192055124,0.0007025101187247251,2.6684395209672404e-08,0
2024-02-06 10:25:32.714883,0.3732936680316925,8.884867668151855,1.2610626220703125,0,7.489700000000001e-05,9.168740175439424e-05,2.454567729357699e-09,0.0006870780144693853,2.626216350493915e-08,0.0001346781411663889,5.548625333927879e-09,2.4058411293168045,81.92175249300917,73.51044707349888,8.981675822470192,-14688.350262159121,87.59415887068319,8.078247506990841,16.489552926501123,8.981675822470192,0.0007061309930287002,2.6953912105563975e-08,0
2024-02-06 10:25:32.789934,0.461831271648407,9.66016960144043,1.356778860092163,0,7.505100000000001e-05,9.175170637474961e-05,2.468692540683643e-09,0.0006885059823391439,2.6368083472693405e-08,0.00013487971496051543,5.569381288849651e-09,2.737100051606026,82.00505694191801,71.2020408558545,9.765910798653607,10449.360783779224,87.26289994839398,7.99494305808198,18.797959144145498,9.765910798653607,0.0007075672412197286,2.7062673127833154e-08,0
2024-02-06 10:25:32.864884,0.5144752264022827,9.612311363220217,2.0076498985290527,0,7.495e-05,9.170240289659805e-05,2.4594281081654397e-09,0.0006875327220504285,2.6298593518121728e-08,0.00013470981130820505,5.55576701777308e-09,3.063691847990547,78.20266478746673,75.62682122215695,9.833202561583784,897.8220537715383,86.93630815200945,11.797335212533268,14.373178777843052,9.833202561583784,0.0007065814233687255,2.6991319990070947e-08,0
2024-02-06 10:25:32.939901,0.2129688262939453,9.006906509399414,2.3857293128967285,0,7.5017e-05,9.172677227236338e-05,2.4655729855335995e-09,0.0006881564658491612,2.6344679105916364e-08,0.0001348569895117878,5.564797505600549e-09,1.354509633676487,75.1643168574122,84.89885258849402,9.319947690006058,-6841.847468943378,88.64549036632351,14.8356831425878,5.101147411505979,9.319947690006058,0.000707219576837135,2.703864158235464e-08,0
2024-02-06 10:25:33.014912,-0.2010042816400528,9.909032821655272,2.8355960845947266,0,7.501099999999999e-05,9.172673637872942e-05,2.465022625007645e-09,0.0006880997180311679,2.6340550337364712e-08,0.0001348413255355953,5.5639884106554055e-09,-1.1620829168050275,74.03085104367872,94.0546907142794,10.308731218576224,13181.847043369176,91.16208291680503,15.96914895632129,-4.054690714279399,10.308731218576224,0.0007071613671528318,2.7034402076815967e-08,0
2024-02-06 10:25:33.089954,-0.6054057478904724,8.659934043884277,2.476659774780273,0,7.5042e-05,9.171423702327169e-05,2.4678659600953775e-09,0.0006883875370175839,2.636188588981798e-08,0.00013492366550141565,5.568169768016481e-09,-3.9989740049775166,74.03996811170143,103.73626885500249,9.027448000626721,-17074.214679106393,93.99897400497753,15.960031888298584,-13.736268855002495,9.027448000626721,0.0007074555094889247,2.7056309885685344e-08,0
2024-02-06 10:25:33.165644,-0.208183005452156,8.746079444885254,2.431194543838501,0,7.568999999999999e-05,9.145063426718868e-05,2.5272113783934853e-09,0.000694027085387945,2.680978822747736e-08,0.00013651381030064808,5.656115510176347e-09,-1.363554456952212,74.4653800783598,94.89429413566722,9.08008550235038,695.4353510854656,91.36355445695222,15.5346199216402,-4.894294135667208,9.08008550235038,0.0007132130356091078,2.7516234931722082e-08,0
2024-02-06 10:25:33.254946,-0.5958341360092163,9.363449096679688,2.577162027359009,0,8.9302e-05,8.597849360240257e-05,3.734794022673925e-09,0.0008172805366418362,3.709574790301206e-08,0.0001706006851242184,7.74633676603799e-09,-3.641052914141848,74.61115705549268,103.01792709449435,9.729900380733952,7276.599386167962,93.64105291414185,15.388842944507312,-13.017927094494347,9.729900380733952,0.0008393118435364527,3.8079508034748775e-08,0
2024-02-06 10:25:33.329890,-0.588655412197113,9.112194061279297,2.366586208343506,0,7.494399999999999e-05,9.448194406897582e-05,2.4392685406310984e-09,0.0006846438944108485,2.6313432412484827e-08,0.00013510951654011,5.551643228289775e-09,-3.6962195578173,75.44100522350061,103.96806659811486,9.432885353180348,-3963.1595264945013,93.6962195578173,14.558994776499388,-13.968066598114845,9.432885353180348,0.0007042149397512157,2.7003101652846018e-08,0
2024-02-06 10:25:33.404971,-1.0337363481521606,9.499845504760742,2.3067634105682373,0,7.5081e-05,9.437081023339189e-05,2.452204954300811e-09,0.0006859188191211223,2.6407315958361767e-08,0.00013542964098900548,5.570175160580519e-09,-6.210269632291443,76.35152826267755,114.13871633791818,9.830403495490419,5294.523811750924,96.21026963229144,13.648471737322453,-24.138716337918176,9.830403495490419,0.0007055010020595525,2.7099566354135517e-08,0
2024-02-06 10:25:33.479917,-0.6221560835838318,9.473523139953612,2.290013074874878,0,7.4946e-05,9.448258297253406e-05,2.439457350259411e-09,0.0006846381167376041,2.6314803365191305e-08,0.00013511935857623807,5.551913103109866e-09,-3.757398544894965,76.41070418879164,105.19937792829965,9.766211074857782,-856.5156330242645,93.75739854489497,13.589295811208373,-15.199377928299647,9.766211074857782,0.0007042112967265072,2.700451013102999e-08,0
2024-02-06 10:25:33.554877,-0.4259376525878906,9.310805320739746,2.622627258300781,0,7.496e-05,9.447524631638086e-05,2.440780055064434e-09,0.0006847696070368289,2.6324389219257727e-08,0.0001351537470585703,5.55380501484931e-09,-2.619260762210147,74.26876377420567,99.22479324234803,9.682494117766865,-1116.821732803062,92.61926076221015,15.731236225794335,-9.224793242348028,9.682494117766865,0.0007043447467198757,2.701435961090209e-08,0
2024-02-06 10:25:33.629947,0.387651115655899,11.529030799865724,0.3110780417919159,0,7.507e-05,9.44731405568496e-05,2.451172216342461e-09,0.0006859157980234621,2.639977691653604e-08,0.0001353151008500754,5.5686808014842855e-09,1.9257827175934183,88.45441167468354,38.74596599907013,11.539739776953676,24740.18461684842,88.0742172824066,1.5455883253164704,51.25403400092988,11.539739776953676,0.0007054897821959601,2.709181928822533e-08,0
2024-02-06 10:25:33.704911,1.4907817840576172,10.808765411376951,1.6343562602996826,0,7.496400000000001e-05,9.437358361316479e-05,2.4411633399614516e-09,0.0006847318948242664,2.632713258881512e-08,0.00013521199283206454,5.554342865519134e-09,7.852884610037737,81.40163667863918,47.63042182039985,11.032812897508846,-6762.270949320071,82.14711538996227,8.598363321360814,42.36957817960014,11.032812897508846,0.0007043056325766815,2.7017178118174483e-08,0
2024-02-06 10:25:33.779871,1.0457007884979248,8.320141792297363,0.3230426013469696,0,7.496e-05,9.436851064801967e-05,2.4407858557729284e-09,0.0006846936370098589,2.6324393737751444e-08,0.00013520807803434125,5.5538020253774e-09,7.163546838738343,87.77651802738649,17.167200541287187,8.391817806964315,-35232.058305023085,82.83645316126166,2.2234819726135067,72.83279945871281,8.391817806964315,0.0007042670067023262,2.701436392349438e-08,0
2024-02-06 10:25:33.854906,1.7085363864898682,8.439786911010742,0.2943277060985565,0,7.5035e-05,9.447179454208172e-05,2.4478673672175574e-09,0.000685322134336233,2.6375769329176925e-08,0.00013523122942087046,5.563943499406971e-09,11.444202099275632,88.00268608126895,9.77434545388055,8.616015812764351,2987.912384887525,78.55579790072437,1.9973139187310578,80.22565454611946,8.616015812764351,0.0007048963279701854,2.7067152225862843e-08,0
2024-02-06 10:25:33.929978,1.1438100337982178,10.760908126831056,1.438137769699097,0,7.5072e-05,9.452456295085705e-05,2.4513637998311766e-09,0.0006856773471944331,2.6401132819585243e-08,0.0001352632800321727,5.568947647831852e-09,6.067363000653582,82.3878319412366,51.503328507771094,10.91667006701912,30645.969925601687,83.93263699934643,7.612168058763408,38.49667149222891,10.91667006701912,0.0007052548988711158,2.7093212739370644e-08,0
2024-02-06 10:25:34.019948,1.6678569316864014,9.08108615875244,1.8951832056045528,0,8.997e-05,0.00011546867017675197,4.015603393398735e-09,0.0008334803626277445,3.771733860005064e-08,0.00016009318797720958,7.76905797803374e-09,10.407115194334526,78.21181665702112,48.65059209646999,9.425475688264497,-16574.351214345053,79.59288480566548,11.788183342978897,41.349407903530015,9.425475688264497,0.0008565350883152249,3.871796693461571e-08,0
2024-02-06 10:25:34.094915,1.8927903175354004,8.899225234985352,1.464459776878357,0,7.4967e-05,8.875847483671463e-05,2.4835934650802164e-09,0.0006986010567076206,2.6224429832906408e-08,0.00013489082614411403,5.556235396102632e-09,12.007401627680798,80.6551381120774,37.729270109223954,9.21539513028337,-2802.307121548492,77.99259837231921,9.3448618879226,52.27072989077605,9.21539513028337,0.0007170195522202902,2.6921380134341638e-08,0
2024-02-06 10:25:34.170659,1.689393162727356,9.53334617614746,1.6654640436172483,0,7.574400000000001e-05,9.015015311879673e-05,2.5530994670409335e-09,0.0007057621107008457,2.6770024923444605e-08,0.0001361068015483766,5.661517974461166e-09,10.048995527387525,80.09050057654198,44.59133453428924,9.82407802560206,8036.054279133507,79.95100447261248,9.909499423458028,45.40866546571077,9.82407802560206,0.0007243978661177741,2.748099956452816e-08,0
2024-02-06 10:25:34.245545,1.2514909505844116,9.334734916687012,1.720500946044922,0,7.4886e-05,8.888851383418597e-05,2.476291878918103e-09,0.0006976677039120196,2.6167953532975677e-08,0.00013465422256781151,5.5453614951153194e-09,7.636007735662162,79.55691767402786,53.96788872528626,9.574112442913536,-3337.948116984787,82.36399226433785,10.443082325972144,36.03211127471374,9.574112442913536,0.0007160818058216963,2.6863448171913404e-08,0
2024-02-06 10:25:34.320263,1.148595929145813,9.128944396972656,1.8042527437210083,0,7.471800000000001e-05,8.868690653628865e-05,2.461375543606984e-09,0.0006961167548496723,2.6050875638439705e-08,0.0001343581432578712,5.522764456385964e-09,7.171222870423238,78.82009431474197,57.518974492699485,9.376152002537799,-2649.43441173128,82.82877712957676,11.179905685258044,32.481025507300515,9.376152002537799,0.0007144900380223071,2.6743362135992512e-08,0
2024-02-06 10:25:34.395504,0.9451987147331238,9.485487937927246,2.141652822494507,0,7.524100000000001e-05,8.923443383566298e-05,2.507901974114249e-09,0.0007009844289052486,2.6416217597991612e-08,0.00013538999756343656,5.593303595210735e-09,5.690557101293302,77.2769751156189,66.18617682066055,9.770084894359675,5235.614782125122,84.30944289870669,12.723024884381104,23.813823179339455,9.770084894359675,0.0007194945484086841,2.7118096717955803e-08,0
2024-02-06 10:25:34.470660,-0.2584340870380401,11.505102157592772,2.811666965484619,0,7.5156e-05,8.920524633898594e-05,2.5003182877068253e-09,0.000700092328826189,2.635667183578802e-08,0.00013517948147244742,5.581804392351709e-09,-1.2867936865289815,76.26698050937972,95.25157993733445,11.846503068787284,27628.1091919156,91.28679368652898,13.73301949062029,-5.251579937334452,11.846503068787284,0.0007185821714089738,2.7057019090685867e-08,0
2024-02-06 10:25:34.545668,1.49317467212677,10.906874656677246,1.7157150506973269,0,7.500800000000001e-05,8.911387553568938e-05,2.4871226726881005e-09,0.0006984338425419332,2.6253180899106787e-08,0.00013484445520325,5.5618226210377095e-09,7.795455544786017,81.06029708596449,48.967179489507245,11.141506339500895,-9398.95383540941,82.20454445521399,8.939702914035518,41.032820510492755,11.141506339500895,0.0007168920018524001,2.695086561463493e-08,0
2024-02-06 10:25:34.619874,0.0095716323703527,7.295976638793945,1.170132040977478,0,7.4206e-05,8.851127426758603e-05,2.4158949876169862e-09,0.0006911344991724492,2.569596399407931e-08,0.00013368723051948838,5.45414141506289e-09,0.07516660899540523,80.88847007931032,89.53133331335422,7.3892202378394,-50565.80467430525,89.9248333910046,9.111529920689673,0.46866668664578154,7.3892202378394,0.0007094881374785591,2.637928681279533e-08,0
2024-02-06 10:25:34.694879,-0.9069121479988098,8.119136810302734,0.27997025847435,0,7.5005e-05,8.815278673159245e-05,2.486472279986158e-09,0.0006972928369953634,2.6250640714878356e-08,0.0001342665463881194,5.56118894893748e-09,-6.373550788904836,88.0250658225174,162.84416921959237,8.174426923903038,10468.724565877454,96.37355078890484,1.9749341774826008,-72.84416921959236,8.174426923903038,0.0007155527372685965,2.694820040126155e-08,0
2024-02-06 10:25:34.785695,-0.067001424729824,12.182294845581056,2.10097336769104,0,9.081599999999999e-05,8.045351298238623e-05,3.8193893823750156e-09,0.0008577858049509526,3.854431491878495e-08,0.00015308909622476988,7.832878981613673e-09,-0.31511798066219915,80.2149543651936,91.82658110101383,12.362317177104527,46114.01353507631,90.31511798066221,9.785045634806393,-1.826581101013816,12.362317177104527,0.0008750460138241174,3.951716008208677e-08,0
2024-02-06 10:25:34.875470,0.0717872455716133,9.08108615875244,2.6298060417175293,0,8.9775e-05,8.045102196263808e-05,3.735638571936131e-09,0.0008467182151381971,3.765712057632855e-08,0.00015062672554217273,7.674794896383982e-09,0.4529216492125428,73.84942902532507,88.43635425947647,9.454478253630176,-32390.297114724046,89.54707835078746,16.150570974674935,1.5636457405235287,9.454478253630176,0.0008637664691507793,3.861238405410686e-08,0
2024-02-06 10:25:34.935750,-0.7944455146789551,8.076065063476562,2.0220072269439697,0,6.028e-05,9.110842478629861e-05,1.2055656310061872e-09,0.0005936931274883748,1.641465430094318e-08,8.202410936258728e-05,4.243776708626033e-09,-5.618131886413724,75.94378705075056,111.44983591067316,8.363162309265189,-18104.113211098007,95.61813188641372,14.056212949249453,-21.449835910673155,8.363162309265189,0.0006062179716988717,1.6997173443335e-08,0
2024-02-06 10:25:35.010501,-0.8375178575515747,9.389771461486816,2.072258472442627,0,7.4751e-05,7.930035380652461e-05,2.43855834851456e-09,0.0007200671876647475,2.5920367061233598e-08,0.000111648168830499,5.6450924774921094e-09,-5.096991773312194,77.55470452095818,112.0064431901686,9.652124089405413,17243.405173713058,95.0969917733122,12.445295479041816,-22.006443190168593,9.652124089405413,0.0007329738156772466,2.6639802260670623e-08,0
2024-02-06 10:25:35.085544,-0.6891575455665588,8.798723220825195,2.713557720184326,0,7.504299999999999e-05,7.907745919766937e-05,2.4616815092131714e-09,0.000722722707888365,2.6131014385984343e-08,0.00011234689799462252,5.677795757248576e-09,-4.478532662157862,72.86005027368918,104.25003327955737,9.233410201007631,-5579.652844339677,94.47853266215787,17.13994972631082,-14.250033279557359,9.233410201007631,0.0007356651293487167,2.68538107790003e-08,0
2024-02-06 10:25:35.160664,-0.3038993179798126,9.078693389892578,2.713557720184326,0,7.512000000000001e-05,7.903922650842282e-05,2.4677690016128576e-09,0.0007234109884278778,2.618669053329253e-08,0.00011255584193907676,5.686454512736026e-09,-1.9171976062721225,73.35896392524052,96.39009604756963,9.480423195402183,3288.245399288501,91.91719760627213,16.64103607475948,-6.390096047569626,9.480423195402183,0.0007363691160415836,2.6910377363708035e-08,0
2024-02-06 10:25:35.250652,-0.4737958014011383,9.423272132873535,2.9839563369750977,0,8.998799999999999e-05,7.325784099094483e-05,3.5999454014031555e-09,0.0008609546001241209,3.7964864318588076e-08,0.00015491116143999986,7.67480421585608e-09,-2.87836947448984,72.42918241774329,99.0221681219286,9.89578372705215,4615.732449326204,92.87836947448984,17.570817582256705,-9.0221681219286,9.89578372705215,0.0008778422424788119,3.889978341036885e-08,0
2024-02-06 10:25:35.310298,0.1459673941135406,9.337127685546877,3.821474313735962,0,5.9646e-05,7.823132575790498e-05,1.3017032526563557e-09,0.0005763405744788649,1.615965922468618e-08,5.16659730380624e-05,4.540822508689397e-09,0.8956324369270868,67.74182905892401,87.81255840238673,10.089941814841849,3255.1736543892116,89.10436756307291,22.25817094107599,2.1874415976132777,10.089941814841849,0.0005839160649360807,1.6835916567605744e-08,0
2024-02-06 10:25:35.385461,0.6604426503181458,12.720699310302734,3.735329627990722,0,7.5163e-05,8.448785808762822e-05,2.564160040521925e-09,0.0007474762252261641,2.6430491865197648e-08,0.00011029543641994887,5.7974001039693774e-09,2.9720560151682442,73.63555379557137,79.97317634873589,13.27422550913013,42365.042564669864,87.02794398483177,16.364446204428635,10.026823651264115,13.27422550913013,0.000760278888788619,2.7180060060919525e-08,0
2024-02-06 10:25:35.460637,1.552997350692749,10.519224166870115,1.9310768842697144,0,7.517600000000001e-05,8.45022454476348e-05,2.5652584761949056e-09,0.0007476272847287659,2.6440210038012365e-08,0.0001103322680622786,5.798834184048514e-09,8.398152803295137,79.59769222668837,51.1933027690523,10.807170572221196,-32817.055136066476,81.60184719670487,10.402307773311634,38.8066972309477,10.807170572221196,0.0007604343467600382,2.7189919746074817e-08,0
2024-02-06 10:25:35.550598,0.8566610813140869,6.788680076599121,-0.0047858161851763,0,8.9961e-05,0.00010231564540624532,3.946309734332213e-09,0.0008755759668486122,3.843974007529812e-08,0.00012457237478309354,7.535366756282926e-09,7.192119094962051,90.04039180229685,-0.3200848296972265,6.8425191482880505,-44070.77982607069,82.80788090503796,-0.04039180229685914,90.32008482969724,6.8425191482880505,0.0008902921102519544,3.936964223519766e-08,0
2024-02-06 10:25:35.625679,2.053115129470825,9.06194305419922,0.6556568145751953,0,7.5081e-05,8.066691039800556e-05,2.5849195191485856e-09,0.0007576473307554725,2.6288558741123726e-08,0.0001197298945550718,5.717757872406975e-09,12.765677979354663,85.8617019759415,17.710743030978122,9.314718434333395,32927.09588371685,77.23432202064535,4.138298024058509,72.28925696902188,9.314718434333395,0.0007712793760267551,2.7027076880296542e-08,0
2024-02-06 10:25:35.699887,1.2443121671676636,10.732192993164062,1.3902796506881714,0,7.420799999999999e-05,7.922758338302286e-05,2.5151255726131666e-09,0.0007490071903707983,2.5630904042652105e-08,0.00011883684328798434,5.613623491338481e-09,6.613460145572393,82.61884272525867,48.171185379607365,10.893170186818844,21270.641339012633,83.38653985442761,7.381157274741321,41.82881462039264,10.893170186818844,0.0007625030993501103,2.6358715207539232e-08,0
2024-02-06 10:25:35.775666,2.0985803604125977,8.399106979370117,1.2562767267227173,0,7.5779e-05,8.185342546343716e-05,2.6416547050620613e-09,0.0007640348264992239,2.681939854690351e-08,0.00012091571332244059,5.80194912455597e-09,14.02856197055117,81.49318218913542,30.906076239345243,8.747986556580802,-28308.418298447363,75.97143802944882,8.506817810864584,59.09392376065476,8.747986556580802,0.0007778623329947737,2.7566666313545465e-08,0
2024-02-06 10:25:35.850674,2.3378713130950928,8.310569763183594,0.6915504336357117,0,7.500800000000001e-05,8.014317334329998e-05,2.5792050162220655e-09,0.0007575932461149696,2.623281092491075e-08,0.00012016482595212243,5.709012576665628e-09,15.711982818918452,85.24318493514816,16.47839962406775,8.660799851491554,-1162.3654155456525,74.28801718108156,4.756815064851841,73.52160037593225,8.660799851491554,0.0007712392885406286,2.6970455912689874e-08,0
2024-02-06 10:25:35.925440,2.134474039077759,9.676919937133787,0.8997334241867065,0,7.4766e-05,7.960201955568703e-05,2.559875847881287e-09,0.0007554167598612311,2.604973671418762e-08,0.0001199722806053259,5.679955986772175e-09,12.438767871189501,84.68806754898206,22.856622398536803,9.950290404193892,17247.018065729582,77.5612321288105,5.311932451017937,67.1433776014632,9.950290404193892,0.0007690151563592409,2.678439185881825e-08,0
2024-02-06 10:25:36.000393,0.708300769329071,8.789151191711426,0.6077986359596252,0,7.495300000000001e-05,7.986781900027309e-05,2.5747862777862706e-09,0.0007571433375117782,2.6191161083292007e-08,0.0001201132348529496,5.702403982467526e-09,4.60739959550345,86.04410680385854,40.6331611687796,8.83856820036305,-14832.257599173377,85.39260040449655,3.9558931961414663,49.3668388312204,8.83856820036305,0.0007707607224276382,2.6928123856787492e-08,0
2024-02-06 10:25:36.075653,0.9404128789901732,8.961441040039062,0.8327320218086243,0,7.526e-05,8.012089654529007e-05,2.599344545622513e-09,0.0007598680534193518,2.642402233179992e-08,0.00012033435630891701,5.73931268771087e-09,5.990687965561976,84.6910983980761,41.52476745633868,9.049046608190968,2796.683601221355,84.00931203443804,5.308901601923918,48.47523254366132,9.049046608190968,0.0007734980116191749,2.716477974115817e-08,0
2024-02-06 10:25:36.150689,1.299349069595337,13.933903694152832,0.4546525478363037,0,7.5036e-05,7.987004320704851e-05,2.581425560370252e-09,0.0007573037748091224,2.625409908703834e-08,0.00012019016923711679,5.712373940849716e-09,5.32747659099312,88.13114588205208,19.285346732910455,14.00173878851617,66004.2137150861,84.67252340900689,1.8688541179479203,70.71465326708956,14.00173878851617,0.0007709305467571568,2.699208574445219e-08,0
2024-02-06 10:25:36.225658,0.2512553632259369,11.387849807739258,0.9140908718109132,0,7.496899999999999e-05,7.981809795854899e-05,2.5760760076412038e-09,0.0007564554960668089,2.6203388151463988e-08,0.0001201443163325586,5.704322735583131e-09,1.2639380450031932,85.4107667380029,74.63072006089972,11.427240026493925,-34340.844375972,88.73606195499681,4.589233261997102,15.369279939100283,11.427240026493925,0.0007700847375701069,2.694054595001962e-08,0
2024-02-06 10:25:36.315621,0.0430723465979099,6.683392524719238,-0.588655412197113,0,8.9963e-05,8.202467279909837e-05,3.789411260011287e-09,0.0008919355998332503,3.856137619742674e-08,0.00012258410597328325,7.524057717610029e-09,0.36924802767582593,95.03347055533443,-85.81508393645835,6.709404299997385,-52441.956432050276,89.63075197232418,-5.033470555334424,175.81508393645836,6.709404299997385,0.0009040486846597192,3.9470885681409494e-08,0
2024-02-06 10:25:36.390656,-1.404637098312378,10.275147438049316,-0.8518753051757812,0,7.5035e-05,9.218739210589516e-05,2.489092407560415e-09,0.0007653570575511457,2.6191343802709605e-08,0.00013333622724775453,5.613868350448203e-09,-7.784219357545926,94.73934706764952,-148.76429466603767,10.405640383329379,49260.15970323174,97.78421935754592,-4.739347067649515,-121.23570533396234,10.405640383329379,0.000782335279981223,2.69016280002024e-08,0
2024-02-06 10:25:36.465696,-0.8590540289878845,8.111958503723145,-0.569512128829956,0,7.504e-05,9.218173287807691e-05,2.489553330372875e-09,0.0007654030253160002,2.619517070291677e-08,0.00013333267377916953,5.61453502270077e-09,-6.045075452768417,94.0159460541331,-146.45750719590689,8.177174857842468,-29697.035254356488,96.04507545276842,-4.015946054133097,-123.54249280409311,8.177174857842468,0.0007823789778211024,2.6905535628581218e-08,0
2024-02-06 10:25:36.540635,-0.7633376717567444,6.836538314819336,-0.9715206623077391,0,7.493900000000001e-05,9.226366365896452e-05,2.480238837847755e-09,0.0007646481262266638,2.6117903119763873e-08,0.00013341049593512197,5.6010644926301995e-09,-6.371005408783205,98.08798336749867,-128.15722689786037,6.947286731408649,-16411.856662536447,96.3710054087832,-8.087983367498653,-141.84277310213963,6.947286731408649,0.000781663419253695,2.6826635486336012e-08,0
2024-02-06 10:25:36.615689,-1.6487137079238892,7.82959508895874,-2.10097336769104,0,7.505399999999999e-05,9.21249707046329e-05,2.49084118432366e-09,0.0007654914288973809,2.620588614418349e-08,0.00013323382752839706,5.61639654122935e-09,-11.891306061254891,105.02075188336676,-128.1226256655772,8.272539225624136,17657.31998581671,101.8913060612549,-15.02075188336676,-141.8773743344228,8.272539225624136,0.0007824419408112975,2.6916475781865726e-08,0
2024-02-06 10:25:36.690690,-3.823867082595825,8.05452823638916,-2.830810308456421,0,7.5001e-05,9.226999409558166e-05,2.485954717756455e-09,0.0007650704996292593,2.6165326253077537e-08,0.00013336451979581494,5.609331685025259e-09,-25.395912674005068,109.3643186204081,-143.48743918095713,9.354724559206076,14428.945395153929,115.39591267400507,-19.364318620408095,-126.51256081904287,9.354724559206076,0.0007820695086459588,2.6875060385817787e-08,0
2024-02-06 10:25:36.765584,-0.4953319728374481,8.834616661071777,-2.7638089656829834,0,7.4894e-05,9.250107124504731e-05,2.476069465760732e-09,0.0007641669303772452,2.6083512050572195e-08,0.0001336638319269814,5.59504566820809e-09,-3.2090525631409337,107.37169643371736,-100.16072245342399,9.270083349689566,-1130.146734271241,93.20905256314094,-17.371696433717357,-169.83927754657606,9.270083349689566,0.0007812640818756916,2.6791510911498658e-08,0
2024-02-06 10:25:36.840617,1.541032791137695,6.1665239334106445,-2.6656997203826904,0,7.5033e-05,9.257374745191918e-05,2.4889321656601704e-09,0.0007652095096485617,2.6189803713153985e-08,0.00013328648107329983,5.613598714961609e-09,14.031012236412124,113.37813488864555,-59.967925528728465,6.892514380393869,-31686.977320588237,75.96898776358788,-23.37813488864554,149.96792552872847,6.892514380393869,0.000782228085925574,2.6900057479332842e-08,0
2024-02-06 10:25:36.915241,-3.232818841934204,4.812138080596924,-0.8614469170570374,1,7.4624e-05,9.291971769930706e-05,2.4509987520367444e-09,0.0007629643732666972,2.5877292154097813e-08,0.00013400778256065626,5.5589370380484645e-09,-33.89340660417884,100.14932244581128,-165.07914180017232,5.860877183698949,-13824.469295332867,123.89340660417884,-10.149322445811276,-104.92085819982769,5.860877183698949,0.000780196638417769,2.6580884580916508e-08,0
2024-02-06 10:25:36.990687,-3.584576368331909,8.152637481689453,-6.11148738861084,1,7.5446e-05,9.011776826788768e-05,2.5262271587692616e-09,0.0007682928960227968,2.6506638891775796e-08,0.00013114190656102675,5.667913560277476e-09,-23.734277469304892,126.85644347039411,-120.39294148218971,10.801155667307118,65480.98618360376,113.73427746930489,-36.856443470394126,-149.60705851781032,10.801155667307118,0.0007845975948810586,2.7223316717907132e-08,0
2024-02-06 10:25:37.080628,1.1438100337982178,5.163895606994629,-8.48046588897705,1,8.9941e-05,7.242831425835475e-05,3.7042798918782034e-09,0.0008648044695830347,3.8342512049004063e-08,2.5386725181708497e-05,6.8023548188329505e-09,12.489444400596371,148.6620752402539,-82.31853837257471,9.99461959893718,-8967.390493433883,77.51055559940363,-58.6620752402539,172.31853837257472,9.99461959893718,0.0008682033846585445,3.911702891103432e-08,0
2024-02-06 10:25:37.155434,-0.8303391337394714,4.678135395050049,-8.377571105957031,1,7.4806e-05,7.005612322216019e-05,2.626028911244407e-09,0.0007903248999750616,2.5817320544873172e-08,0.00015295992014087212,5.452716580354322e-09,-10.064814348628518,150.82048932475777,-95.6603581180761,9.631101260333908,-4859.481038997841,100.06481434862853,-60.82048932475778,-174.3396418819239,9.631101260333908,0.0008080334430523353,2.651720547239269e-08,0
2024-02-06 10:25:37.230492,-2.172760486602783,5.362506866455078,-9.483095169067385,1,7.5058e-05,6.967773266999706e-05,2.6436353770868186e-09,0.0007915900209000112,2.601664182490343e-08,0.00015070947619021908,5.490978924292039e-09,-22.05662291640425,150.51268051141744,-102.90483221478826,11.10884611516918,19688.03931406742,112.05662291640425,-60.51268051141743,-167.09516778521177,11.10884611516918,0.0008088158590384106,2.67208777812279e-08,0
2024-02-06 10:25:37.305694,-0.4450809061527252,6.613997936248779,-10.71065616607666,1,7.5202e-05,6.948924808971866e-05,2.6536553997015184e-09,0.0007924523292458059,2.6130692874113933e-08,0.00014925552609408867,5.51257640445651e-09,-3.849845164539688,148.30402018464915,-92.37955486656982,12.596079597304902,19776.51501470335,93.84984516453969,-58.30402018464913,-177.6204451334302,12.596079597304902,0.0008093742408779766,2.6837352620491544e-08,0
2024-02-06 10:25:37.380650,-0.4307234585285187,3.787973403930664,-10.78244400024414,1,7.495599999999999e-05,6.959697202657445e-05,2.6365477946272134e-09,0.0007911728867709638,2.5935906972543862e-08,0.00015189917741454623,5.4755343759249465e-09,-6.48713443722634,160.64314786818156,-92.28756318638652,11.43658007557389,-15469.068810115436,96.48713443722635,-70.64314786818157,-177.71243681361346,11.43658007557389,0.0008086232963351871,2.663839581250603e-08,0
2024-02-06 10:25:37.455675,-11.045663833618164,2.4192299842834477,-15.025070190429688,1,7.5025e-05,6.920103666499538e-05,2.6413363259270726e-09,0.0007913870352878571,2.599050528985489e-08,0.00015100881817496796,5.485984701772785e-09,-77.64610712543454,170.85314627126726,-126.32142507978298,18.80457650332746,98207.21663117057,167.64610712543455,-80.85314627126724,-143.67857492021702,18.80457650332746,0.0008086321081083874,2.6694176349097605e-08,1
2024-02-06 10:25:37.530670,-6.939433574676514,1.5482115745544434,-8.772400856018066,1,7.499500000000001e-05,6.947081312611967e-05,2.639256248180207e-09,0.0007913275236644746,2.5966764571470618e-08,0.0001513657802406645,5.481449082796553e-09,-77.4230866530091,169.9911281347089,-128.34586301768775,11.29193137579212,-100175.2800524747,167.4230866530091,-79.9911281347089,-141.65413698231225,11.29193137579212,0.0008086637391482439,2.6669923507596175e-08,0
2024-02-06 10:25:37.605361,-6.5804972648620605,1.3113136291503906,-6.269419193267822,1,7.4691e-05,7.152584261372965e-05,2.617824756507749e-09,0.0007908928758335115,2.5726267070746912e-08,0.00015365213688815606,5.43508635939297e-09,-78.73014016657476,168.18630756569888,-136.38677788622763,9.183033524264603,-28234.96608061903,168.73014016657476,-78.18630756569887,-133.6132221137724,9.183033524264603,0.0008088488526146914,2.6424117536546823e-08,0
2024-02-06 10:25:37.680305,-4.840853214263916,2.8547394275665283,-4.867175102233887,1,7.494399999999999e-05,7.008104177812021e-05,2.635738027383318e-09,0.0007914198815451862,2.5926429634555316e-08,0.0001522433577097751,5.473782139459608e-09,-59.47137183492754,149.60713998227834,-134.84465131902198,7.434567271681494,-23330.303327592734,149.47137183492757,-59.60713998227834,-135.15534868097805,7.434567271681494,0.0008089714588837171,2.662872808556221e-08,0
2024-02-06 10:25:37.755645,-11.85685920715332,5.75494384765625,-6.195239067077637,1,7.534000000000001e-05,6.677489471867948e-05,2.6628355028096853e-09,0.0007931245988336803,2.624016944167034e-08,0.00015005299970425134,5.5336368182275875e-09,-64.10953270678648,137.1100640939089,-152.4128179466816,14.563154742231436,94618.89395473775,154.1095327067865,-47.1100640939089,-117.5871820533184,14.563154742231436,0.0008099514914857687,2.6949180352631092e-08,1
2024-02-06 10:25:37.830674,-6.362742424011231,14.218660354614258,-3.3333208560943604,1,7.5029e-05,6.960804277232561e-05,2.641627956029834e-09,0.0007900187033802272,2.5993990658176077e-08,0.0001515346907723046,5.486739932358482e-09,-24.108153026400963,103.19375182175129,-152.35080416046566,15.930028919115784,18217.944753153424,114.10815302640097,-13.193751821751286,-117.64919583953436,15.930028919115784,0.0008074265253362855,2.669775390703796e-08,0
2024-02-06 10:25:37.920314,-7.9707770347595215,-0.952377438545227,-4.568061351776123,1,8.964e-05,-3.5105483633724116e-05,2.893686401816887e-09,0.0008869355332235695,3.824497983368511e-08,9.381114305270679e-05,7.279113921367103e-09,-96.81360625698737,-168.22332081946644,-150.1829291217986,9.236205597370084,-74674.51273701138,-173.18639374301264,-101.77667918053358,-119.81707087820139,9.236205597370084,0.0008925735631512905,3.903892164175749e-08,0
2024-02-06 10:25:37.995420,-11.773107528686523,9.612311363220217,-3.393143653869629,1,7.510600000000001e-05,0.00010837332548883823,2.361248995055773e-09,0.0008240037933929564,2.5811583747162822e-08,0.00015166521982873444,5.4952371923076695e-09,-50.76962032281792,109.44301981843108,-163.92241613483347,15.57292568791438,84370.35776827809,140.76962032281793,-19.443019818431075,-106.07758386516652,15.57292568791438,0.0008448250517765143,2.6495489883245664e-08,1
2024-02-06 10:25:38.070613,-10.282325744628906,2.495803117752075,-2.802095413208008,1,7.5193e-05,0.00010741391414144915,2.3706357399796894e-09,0.0008245304963728786,2.5883294988767624e-08,0.0001513957269293166,5.508420343491643e-09,-76.3565959119526,138.3088105296549,-164.75616377954174,10.945638155263525,-61538.80723805213,166.35659591195258,-48.308810529654885,-105.24383622045826,10.945638155263525,0.0008451680037321269,2.656892109152769e-08,0
2024-02-06 10:25:38.145604,-8.947083473205566,4.448416233062744,-1.8712540864944456,1,7.4991e-05,0.0001093560844724504,2.348741970119686e-09,0.0008238291302184464,2.5716810666481903e-08,0.00015186773522878655,5.477790733813676e-09,-63.56381332100106,112.81436041033052,-168.18704762099696,10.165643192405804,-10401.180979820525,153.56381332100108,-22.81436041033052,-101.81295237900304,10.165643192405804,0.0008448177306443967,2.6398430465111632e-08,0
2024-02-06 10:25:38.220592,-9.030835151672363,2.409658432006836,-2.495803117752075,1,7.4988e-05,0.00010938305135038777,2.3484138614159512e-09,0.0008238188431064487,2.571433919452191e-08,0.00015187428581459292,5.47733512078211e-09,-75.06007899848083,136.0060663184857,-164.5510855626884,9.674268473543817,-6552.711351976147,165.06007899848083,-46.00606631848568,-105.44891443731161,9.674268473543817,0.0008448123678496083,2.6395899073544917e-08,0
2024-02-06 10:25:38.295659,-8.669506072998047,3.0389933586120605,-1.6152129173278809,1,7.506699999999999e-05,0.00010868388787201331,2.357027505515236e-09,0.0008240340648521782,2.5779429384386274e-08,0.00015171190068120725,5.489326775148693e-09,-70.68248524932142,117.99046719649475,-169.4462428815377,9.327632548066045,-4617.687205799776,160.6824852493214,-27.990467196494755,-100.55375711846231,9.327632548066045,0.0008449028514143414,2.6462563490536556e-08,0
2024-02-06 10:25:38.370577,-9.554882049560549,2.945669889450073,-1.749215841293335,1,7.4918e-05,0.00011004160478714381,2.34073245631213e-09,0.0008235882074401976,2.5656681525100503e-08,0.00015196255062372452,5.466703028526477e-09,-72.86601851746103,120.70294873765839,-169.6257193272856,10.150492507167263,10983.474720377177,162.86601851746104,-30.702948737658378,-100.37428067271443,10.150492507167263,0.0008446888817847409,2.63368406859017e-08,0
2024-02-06 10:25:38.445476,-9.138516426086426,3.687471389770508,-2.0339717864990234,1,7.489899999999999e-05,0.0001102191920726626,2.3386399787419605e-09,0.0008235251925980449,2.5641033947800128e-08,0.0001519984909061886,5.463815398631941e-09,-68.02549282042784,118.88068278057536,-167.45213240077973,10.062155283461962,-1179.4179322193972,158.02549282042784,-28.880682780575352,-102.54786759922027,10.062155283461962,0.0008446570631815946,2.6320811871458986e-08,0
2024-02-06 10:25:38.520574,-9.11458683013916,3.9650487899780273,-2.053115129470825,1,7.509799999999999e-05,0.00010840300829866812,2.3603928876789083e-09,0.0008242866183559299,2.580499122299005e-08,0.00015159182575804958,5.494022635140033e-09,-66.48988399759217,117.3752676236919,-167.30565777221668,10.149511649627012,1163.231592919253,156.4898839975922,-27.375267623691904,-102.69434222778332,10.149511649627012,0.0008450915471388377,2.648873933048211e-08,0
2024-02-06 10:25:38.610604,-9.033227920532228,3.809509754180908,-2.1320810317993164,1,9.003e-05,-2.7088576629844577e-05,2.967486434518345e-09,0.0008823314724466205,3.8546601888921906e-08,0.00012034515121800668,7.52430410524327e-09,-67.13378340801314,119.23457611752873,-166.71972630091773,10.032813202568905,-1296.217339310312,157.13378340801316,-29.23457611752874,-103.28027369908227,10.032813202568905,0.0008909127755708398,3.938605902080416e-08,0
2024-02-06 10:25:38.684943,-9.014084815979004,3.948298454284668,-1.718108057975769,1,7.433900000000001e-05,0.00011450161544445425,2.281687438498325e-09,0.0008214675881471039,2.5179446359033844e-08,0.0001505518097218371,5.398981998189727e-09,-66.34589164776041,113.51633972242777,-169.20871279755252,9.989728777732216,-579.566914226568,156.34589164776042,-23.516339722427762,-100.7912872024475,9.989728777732216,0.0008429623157212486,2.585265214888485e-08,0
2024-02-06 10:25:38.760052,-8.425429344177246,4.065550804138184,-1.9406484365463257,1,7.510899999999999e-05,0.00010778740249279426,2.367268710404164e-09,0.0008245529201115966,2.581316425471343e-08,0.00014914318847144612,5.514364572494138e-09,-64.24113996837904,115.51699149750111,-167.02915452731034,9.554196948410754,-5798.663666424295,154.24113996837906,-25.516991497501117,-102.97084547268965,9.554196948410754,0.0008448368676070748,2.6501540080275563e-08,0
2024-02-06 10:25:38.835614,-8.67189884185791,3.9578700065612793,-2.0483293533325195,1,7.5562e-05,0.00010391485765865716,2.4152192723284693e-09,0.0008263702249252202,2.6187098347064282e-08,0.00014823968500203853,5.5817217933358845e-09,-65.46795986881406,117.36306775631127,-166.7101415790252,9.749985520603483,2591.0983323989444,155.46795986881406,-27.36306775631125,-103.28985842097482,9.749985520603483,0.0008459675233096608,2.6884066324692113e-08,0
2024-02-06 10:25:38.925276,-8.336892127990723,4.1493024826049805,-2.072258472442627,1,8.966200000000001e-05,-1.599711867877574e-05,3.0350393321366336e-09,0.0008835257909738423,3.8241865259152674e-08,0.00011918954083032374,7.46709783545404e-09,-63.540297774894704,116.53861257857282,-166.04117287285516,9.540164391797228,-2340.1343802977217,153.5402977748947,-26.53861257857282,-103.95882712714487,9.540164391797228,0.0008916725171077776,3.9082083776726224e-08,0
2024-02-06 10:25:38.985437,-8.368000030517578,4.728386402130127,-2.373764753341675,1,6.0161e-05,0.000230408393105301,-1.2763417129182789e-10,0.0007525754410795571,1.4108554035748997e-08,0.00018477060642225508,2.983533683404874e-09,-60.53113116300168,116.6577619381131,-164.16286161151746,9.900294014967361,5986.097690698841,150.5311311630017,-26.657761938113097,-105.83713838848254,9.900294014967361,0.0008084540797887687,1.4421132434775783e-08,0
2024-02-06 10:25:39.060115,-8.573789596557617,4.692492961883545,-2.754237174987793,1,7.467799999999999e-05,0.00010743641309717578,2.324612354528848e-09,0.0008209568939432503,2.5530038489512036e-08,0.00014754900442547569,5.395675578743126e-09,-61.30781435328891,120.41060746861295,-162.1909466065174,10.154564523378193,3404.8917808569013,151.30781435328893,-30.41060746861294,-107.80905339348263,10.154564523378193,0.000841001494219294,2.619732816196795e-08,0
2024-02-06 10:25:39.135222,-8.360820770263672,4.718814849853516,-2.732701063156128,1,7.5107e-05,0.00010380393917349257,2.369923410090907e-09,0.000822975619468868,2.588266201363894e-08,0.0001463720561733938,5.458721646241584e-09,-60.55978561284372,120.07545390672637,-161.90022534657663,9.981893239273054,-2299.0038758722726,150.5597856128437,-30.075453906726366,-108.0997746534234,9.981893239273054,0.0008423116447352063,2.6557981321875944e-08,0
2024-02-06 10:25:39.210272,-8.248353958129883,5.254826068878174,-2.782952070236206,1,7.505000000000001e-05,0.00010427730065325169,2.3639930947558457e-09,0.0008226913707026842,2.583576050441906e-08,0.00014652925228769543,5.450373958950445e-09,-57.49977735206067,117.90566191084243,-161.3558704736867,10.168252664936613,2483.136917569074,147.49977735206068,-27.905661910842433,-108.6441295263133,10.168252664936613,0.0008421197472071185,2.6510027545933602e-08,0
2024-02-06 10:25:39.285152,-8.145459175109863,5.293112754821777,-3.0389933586120605,1,7.488e-05,0.00010567077476957712,2.3461475083449047e-09,0.0008217947959026697,2.5695979180257598e-08,0.00014702411764914755,5.425421922505812e-09,-56.98323240884685,119.8619026821816,-159.53993326813062,10.178459040656726,136.30309455279058,146.98323240884685,-29.86190268218159,-110.46006673186938,10.178459040656726,0.0008415040643892479,2.636708093817652e-08,0
2024-02-06 10:25:39.375240,-7.6692705154418945,5.7860517501831055,-3.323749303817749,1,9.0088e-05,-1.45844297973784e-05,3.0387680755135034e-09,0.0009060407627987267,3.883444076862301e-08,9.86418224440313e-05,7.293465730974343e-09,-52.9674121434556,119.87485528886921,-156.56879921911357,10.165796305723045,-140.55961874701129,142.9674121434556,-29.87485528886921,-113.43120078088644,10.165796305723045,0.0009115112608083858,3.9630071203536165e-08,0
2024-02-06 10:25:39.449929,-6.927468776702881,6.207203388214111,-3.603719472885132,1,7.4689e-05,9.780316438249024e-05,2.398025428575435e-09,0.0008136986948606374,2.5593306814374746e-08,0.0001519798682902551,5.3638040231657056e-09,-48.13878223461059,120.13818832907654,-152.5162221289857,9.975268998583525,-2550.942001359241,138.1387822346106,-30.138188329076527,-117.48377787101433,9.975268998583525,0.0008335279871405977,2.6259060783846476e-08,0
2024-02-06 10:25:39.525220,-6.903539657592773,6.412993907928467,-3.3835721015930176,1,7.5291e-05,9.364003084376731e-05,2.4556498303385375e-09,0.0008174973742467763,2.6084296831176072e-08,0.0001498766935263372,5.4546628482724986e-09,-47.10967051135376,117.81666378121058,-153.88954008356535,10.011688710390588,483.7193264409225,137.10967051135376,-27.816663781210572,-116.11045991643466,10.011688710390588,0.0008363811544619972,2.6761429409776823e-08,0
2024-02-06 10:25:39.600420,-5.881768226623535,6.9609694480896,-2.873882532119751,1,7.52e-05,9.422176235249913e-05,2.4471021187481075e-09,0.0008168888589140775,2.6009932257567255e-08,0.00015016140771217113,5.441011114666147e-09,-40.19660475522378,112.43360840535385,-153.95946760381534,9.555600134862175,-6065.007653303373,130.19660475522377,-22.43360840535385,-116.04053239618464,9.555600134862175,0.0008359028631873774,2.6685379644530817e-08,0
2024-02-06 10:25:39.674891,-6.5804972648620605,7.870274543762207,-3.180174827575684,1,7.4471e-05,9.876425812414563e-05,2.3767587142843706e-09,0.0008114828704790475,2.541639076220346e-08,0.0001523681116197801,5.330739104869651e-09,-39.899684317460995,112.00236255905736,-154.20678868464682,10.740469150879514,15910.475433623013,129.89968431746098,-22.002362559057353,-115.79321131535319,10.740469150879514,0.0008315496793350986,2.607793474888559e-08,0
2024-02-06 10:25:39.750618,-4.972463130950928,7.485016345977783,-2.907383441925049,1,7.5727e-05,9.150899899557506e-05,2.4962503197555554e-09,0.0008211259931578043,2.6441669128567405e-08,0.00014854512502653362,5.519712617483537e-09,-33.596973745009926,111.22752081445219,-149.68530895582876,9.444773039443609,-17110.094305015453,123.59697374500993,-21.227520814452188,-120.31469104417124,9.444773039443609,0.0008394566383713402,2.712674619896609e-08,0
2024-02-06 10:25:39.825494,-5.070572376251221,8.305784225463867,-1.983720779418945,1,7.487599999999999e-05,9.578231060388961e-05,2.4165578675209823e-09,0.0008144070075146557,2.5745749836781265e-08,0.00015062628987271552,5.392415180443905e-09,-31.403518053128746,103.43265986614439,-158.63345664565162,9.931359622602782,6498.5654035895805,121.40351805312875,-13.43265986614439,-111.36654335434841,9.931359622602782,0.0008337393502254861,2.6415176093743573e-08,0
2024-02-06 10:25:39.900635,-4.252197742462158,8.391928672790527,-0.5599405169487,1,7.5141e-05,9.454704356316004e-05,2.4417765069481173e-09,0.0008166194544736745,2.5961860842994727e-08,0.00015028925475094678,5.432286490106542e-09,-26.87137345318024,93.81732803534213,-172.49830382208495,9.424393130208694,-6746.869117979378,116.87137345318025,-3.8173280353421233,-97.50169617791504,9.424393130208694,0.0008356993101379292,2.6636257759893765e-08,0
2024-02-06 10:25:39.975427,-4.091872692108154,8.554646492004395,-0.2033971846103668,1,7.4792e-05,9.600308385399258e-05,2.4085255097138234e-09,0.0008136622771074177,2.567737668083382e-08,0.00015042245717986882,5.3798122963746135e-09,-25.56279965796159,91.36202062819105,-177.1543063346077,9.485081399033483,811.4272759758925,115.56279965796159,-1.3620206281910507,-92.84569366539232,9.485081399033483,0.0008330004855467578,2.634522819572065e-08,0
2024-02-06 10:25:40.050036,-2.4981961250305176,8.348855972290039,0.5982270240783691,1,7.460899999999999e-05,9.66060751507608e-05,2.390901771664888e-09,0.0008121156066319347,2.5528618004471663e-08,0.0001503863302495575,5.35228829232482e-09,-16.658558801825237,85.901545868933,166.53333016974887,8.735116226902663,-10051.939740926959,106.65855880182525,4.0984541310670055,-76.53333016974885,8.735116226902663,0.0008315530894760229,2.6193009343413413e-08,0
2024-02-06 10:25:40.140703,-1.8329676389694212,9.708027839660645,0.765730619430542,1,9.066699999999999e-05,6.183116128960527e-05,3.6629943430445874e-09,0.0009570943267580866,3.973360455966014e-08,0.00016133754616929057,7.855119296091752e-09,-10.692117337079697,85.49007408150354,157.3270437448982,9.909183532595849,12949.224146527244,100.6921173370797,4.509925918496465,-67.32704374489819,9.909183532595849,0.0009725648804181983,4.066792050273108e-08,0
2024-02-06 10:25:40.215398,-2.325906753540039,8.906403541564941,0.1220383122563362,1,7.4695e-05,9.50439321881858e-05,2.4101898465309487e-09,0.0008084394777476192,2.5634051596877585e-08,0.00015424782348083917,5.3348545340658174e-09,-14.635913702924432,89.21496453199288,176.99649429497387,9.205908951375854,-9415.283234754605,104.63591370292443,0.7850354680071288,-86.99649429497387,9.205908951375854,0.0008284926851066411,2.6293997209769112e-08,0
2024-02-06 10:25:40.289901,-2.172760486602783,9.205517768859863,-0.0885375961661338,0,7.4503e-05,9.547580424323951e-05,2.391899951833532e-09,0.0008067007333018184,2.5478998136616838e-08,0.00015424460741209452,5.305239260700096e-09,-13.280359112314484,90.55104713348055,-177.66655107719487,9.458873317201785,3395.3581174708634,103.28035911231449,-0.5510471334805428,-92.33344892280515,9.458873317201785,0.0008268452704232492,2.6135150564681645e-08,0
2024-02-06 10:25:40.365508,-2.572376251220703,10.476151466369627,0.6628355383872986,0,7.5607e-05,9.285648876396097e-05,2.495859377573506e-09,0.0008175650147196651,2.6375592829524693e-08,0.0001545616198762006,5.475700298163234e-09,-13.795804678681055,86.37967025795997,165.55066359406666,10.807692634189406,17839.873516838663,103.79580467868107,3.620329742040032,-75.55066359406666,10.807692634189406,0.0008372121446430964,2.7053364021814385e-08,0
2024-02-06 10:25:40.440611,-2.2158329486846924,8.882474899291992,0.016750356182456,0,7.5103e-05,9.406311748233712e-05,2.4487556367994394e-09,0.0008126866408755184,2.596476941231471e-08,0.00015439036423076904,5.397844398168279e-09,-14.007185375006781,89.8919531338014,179.5668868292569,9.154701336879386,-22009.65736801486,104.00718537500678,0.10804686619860016,-89.56688682925689,9.154701336879386,0.0008325525994766573,2.6632731346038606e-08,0
2024-02-06 10:25:40.515619,-2.9193477630615234,9.143301963806152,-0.1363957673311233,0,7.500800000000001e-05,9.430703856614503e-05,2.439808054387137e-09,0.0008118304164745214,2.588760485209059e-08,0.0001543960473877986,5.383177043616398e-09,-17.707665352434503,90.85464990951942,-177.32501108228956,9.599019010731233,5923.6038002859295,107.7076653524345,-0.8546499095194208,-92.67498891771045,9.599019010731233,0.0008317455031951099,2.6553706773314253e-08,0
2024-02-06 10:25:40.590689,-2.5891265869140625,10.54554557800293,0.1196454018354415,0,7.507e-05,9.413627586129582e-05,2.4456497971343867e-09,0.0008124407707483173,2.593795725889449e-08,0.00015439552812646825,5.392749582457338e-09,-13.794323230118732,89.34997365501759,177.3542030521466,10.859393309157873,16789.3206131163,103.79432323011874,0.6500263449824115,-87.3542030521466,10.859393309157873,0.000832321826887055,2.660527349518427e-08,0
2024-02-06 10:25:40.665582,-1.837753415107727,10.349327087402344,-0.8614469170570374,0,7.4893e-05,9.452805474147474e-05,2.428953003876042e-09,0.0008105915745174289,2.5794318896338475e-08,0.00015446117756056534,5.365415764004037e-09,-10.069183117119367,94.75816009968538,-154.88516501863438,10.54646858278576,-4178.290713045456,100.06918311711937,-4.758160099685383,-115.11483498136563,10.54646858278576,0.0008305736025092828,2.645816294344083e-08,0
2024-02-06 10:25:40.740626,-2.424015998840332,9.949711799621582,-2.053115129470825,0,7.5044e-05,9.420629115072168e-05,2.443202446990902e-09,0.0008121241519533991,2.5916833933687018e-08,0.0001542411281260525,5.388722788083375e-09,-13.692051417770381,101.6592926326203,-139.7357643718237,10.444515316328701,-1358.5798525806067,103.69205141777039,-11.659292632620303,-130.2642356281763,10.444515316328701,0.0008319920607097159,2.658363881469394e-08,0
2024-02-06 10:25:40.815450,-3.110780477523804,9.514202117919922,-1.9526129961013796,0,7.4824e-05,9.481511876312173e-05,2.42241009190038e-09,0.0008099831214224695,2.5738402133615676e-08,0.00015468175821986544,5.354741270585325e-09,-18.105766510244603,101.59784904094985,-147.88382372934035,10.198514334574382,-3287.7282924505394,108.1057665102446,-11.597849040949853,-122.11617627065966,10.198514334574382,0.0008300536187869677,2.6400883870051824e-08,0
2024-02-06 10:25:40.905611,-3.933940887451172,9.420879364013672,-1.7898952960968018,0,9.0161e-05,4.07926729758111e-05,3.4623184428503864e-09,0.0009551867937666774,3.927460762824365e-08,0.00012598233338114367,7.507013857027665e-09,-22.664284549992896,100.75754572953456,-155.53504175982073,10.364969081876135,1846.1945553149676,112.6642845499929,-10.757545729534549,-114.46495824017929,10.364969081876135,0.0009643222498101629,4.013524274751309e-08,0
2024-02-06 10:25:40.980657,-5.017928123474121,8.741292953491211,-0.5144752264022827,0,7.5046e-05,0.00010844642302587904,2.3344439748176125e-09,0.0008179261764771342,2.5874306355626037e-08,0.0001433976136049305,5.471174907680408e-09,-29.857924006095697,93.36829957251408,-174.14606627499674,10.092298544419368,-3633.3786938246785,119.85792400609571,-3.368299572514067,-95.85393372500327,10.092298544419368,0.0008374525254730568,2.654925823684692e-08,0
2024-02-06 10:25:41.055606,-4.977248668670654,9.535738945007324,-0.8758043646812439,0,7.4949e-05,0.00010893118910029805,2.3239011606294936e-09,0.0008170397404300571,2.5795010508656044e-08,0.00014346504216509806,5.457262068875562e-09,-27.56263680478566,95.24757526822829,-170.02030784650492,10.792143198749168,9337.61163364154,117.56263680478565,-5.247575268228288,-99.97969215349511,10.792143198749168,0.0008366613172151879,2.6468184543607043e-08,0
2024-02-06 10:25:41.130637,-5.039464473724365,8.786758422851562,-0.7059078812599182,0,7.503100000000001e-05,0.00010852050386145984,2.332816680040926e-09,0.0008177909628221394,2.5862038567489386e-08,0.00014340019196301446,5.469023543474816e-09,-29.8355395131496,94.59314595903807,-172.02612048786537,10.153897365066664,-8506.428458670467,119.8355395131496,-4.593145959038075,-97.97387951213464,10.153897365066664,0.0008373305044526542,2.653671590547835e-08,0
2024-02-06 10:25:41.205598,-4.524989128112793,7.997098922729492,-1.86646831035614,0,7.4961e-05,0.00010885525973752416,2.325208528314961e-09,0.000817203527815044,2.580481376031708e-08,0.00014349022512972101,5.4589823788765696e-09,-29.502432745289795,103.1372739180076,-157.58482321136967,9.376183751560326,-10374.909799847088,119.50243274528981,-13.137273918007589,-112.41517678863033,9.376183751560326,0.0008368157014263388,2.6478207955178597e-08,0
2024-02-06 10:25:41.280586,-5.319434642791748,8.044957160949707,-2.136866807937622,0,7.4988e-05,0.00010872236001661699,2.328145826181641e-09,0.0008174200955721737,2.5826881179232802e-08,0.00014343618010562406,5.462855885347245e-09,-33.47321757204491,104.87518347083414,-158.11420890938166,9.878457389456841,6698.053527184549,123.47321757204493,-14.875183470834132,-111.88579109061834,9.878457389456841,0.0008370006582889272,2.6500770721966742e-08,0
2024-02-06 10:25:41.355651,-6.020556926727295,5.778872966766357,-2.625020265579224,0,7.5065e-05,0.00010828577034119047,2.3365006392004173e-09,0.0008179523130320907,2.588984301696407e-08,0.00014325284745329365,5.473893412908264e-09,-46.173407102748314,114.4296541922726,-156.44233894704834,8.748326118103316,-15055.368964944048,136.1734071027483,-24.42965419227259,-113.55766105295167,8.748326118103316,0.0008374324884767781,2.656514098919687e-08,0
2024-02-06 10:25:41.430657,-6.104308605194092,5.123216152191162,-3.268712520599365,0,7.5006e-05,0.00010864345387438211,2.3301012270860585e-09,0.0008176307014030815,2.5841593318038237e-08,0.0001434267125704859,5.4654363658875635e-09,-49.9939799928815,122.53867527950382,-151.83200635435068,8.613617639055155,-1795.9693764253655,139.99397999288152,-32.53867527950383,-118.16799364564935,8.613617639055155,0.0008371944731216437,2.6515812482609555e-08,0
2024-02-06 10:25:41.505610,-6.097129821777344,3.345285415649414,-4.146909713745117,0,7.495300000000001e-05,0.00010896679199269682,2.3243345555705814e-09,0.0008174062861115338,2.5798264837869105e-08,0.000143623226559696,5.4578295425006145e-09,-61.247938190269565,141.10710440347296,-145.7787627740684,8.097085077342149,-6891.41944569272,151.2479381902696,-51.10710440347295,-124.22123722593157,8.097085077342149,0.0008370510316218767,2.6471511159849666e-08,0
2024-02-06 10:25:41.580615,-6.774322986602783,3.3333208560943604,-3.907618999481201,0,7.5005e-05,0.00010863213421967899,2.3299921276521023e-09,0.0008175799298745991,2.584077447948474e-08,0.00014341380881315215,5.465292505420307e-09,-63.8004038051388,139.5347874348723,-150.02244908449524,8.501292025427368,5389.066703356036,153.8004038051388,-49.53478743487229,-119.97755091550475,8.501292025427368,0.0008371412084452492,2.6514975225036773e-08,0
2024-02-06 10:25:41.670547,-4.958105564117432,3.015064239501953,-4.453201770782471,0,8.993199999999999e-05,2.1067153731378735e-05,3.298002763274821e-09,0.0008649611020355822,3.839841947114636e-08,8.101282299428928e-05,7.140300671915145e-09,-58.69587612388022,145.89982378646297,-138.0708964340769,7.314672184353572,-13194.63417997816,148.69587612388023,-55.89982378646298,-131.9291035659231,7.314672184353572,0.0008690020773798267,3.919565452692469e-08,0
2024-02-06 10:25:41.745563,-8.734114646911621,5.015535354614258,-6.903539657592773,0,7.5016e-05,0.00012318373206523335,2.2221796570036888e-09,0.0008050688902626635,2.5943335788586053e-08,0.0001657114005671118,5.3002314125942165e-09,-60.13355100658078,144.00097670211045,-141.67677043787046,12.210618877138776,65265.36595906478,150.1335510065808,-54.00097670211044,-128.32322956212957,12.210618877138776,0.0008311259941742826,2.6572301505409377e-08,0
2024-02-06 10:25:41.820531,-7.38690710067749,6.161738395690918,-6.841324329376221,0,7.4968e-05,0.00012357063658717545,2.2162575521560314e-09,0.0008048006356926562,2.5904698919963128e-08,0.00016604127730279901,5.292269348325339e-09,-50.16705474614774,137.99175759026167,-137.19593580726453,11.804115178643684,-5422.362854752585,140.16705474614773,-47.99175759026167,-132.80406419273547,11.804115178643684,0.0008309894531257351,2.6532495897043898e-08,0
2024-02-06 10:25:41.895568,-5.829123973846436,6.329241752624512,-8.48285961151123,0,7.503700000000001e-05,0.00012311468351510437,2.22476819569956e-09,0.0008052315745077732,2.5960245031215044e-08,0.00016551259295683837,5.303707956849297e-09,-42.644544174079606,143.27259868206517,-124.49548614719237,12.082917472789637,3715.5309266888694,132.6445441740796,-53.27259868206516,-145.50451385280766,12.082917472789637,0.0008312337410792392,2.658972045164951e-08,0
2024-02-06 10:25:41.970567,-6.0325212478637695,7.30076265335083,-10.050213813781738,0,7.499899999999999e-05,0.00012334005477431694,2.220085555672059e-09,0.0008049726044240596,2.5929651151815326e-08,0.00016586472135191908,5.297411787877428e-09,-39.566461136026426,144.00427295945494,-120.97378646817326,13.8093897631003,23019.93746997512,129.56646113602642,-54.00427295945496,-149.02621353182676,13.8093897631003,0.0008310864989723602,2.6558203259627418e-08,0
2024-02-06 10:25:42.045572,-5.587440490722656,6.326848983764648,-8.504395484924316,0,7.5005e-05,0.0001233051948891011,2.220825491421051e-09,0.000805013487258971,2.5934481110090385e-08,0.00016580905752402284,5.298406809214058e-09,-41.4487415294107,143.3525794346005,-123.30516173655137,11.982205634386847,-24360.8309941131,131.4487415294107,-53.35257943460048,-146.69483826344864,11.982205634386847,0.0008311098178414771,2.6563179234212655e-08,0
2024-02-06 10:25:42.119872,-5.513260364532471,6.55417537689209,-9.026049613952637,0,7.43e-05,0.00012721819194057854,2.1325159975635887e-09,0.0008004729261718394,2.5368547149356024e-08,0.00017198853942137699,5.1793331562908044e-09,-40.06997356610276,144.01509912549272,-121.41727539387543,12.442782098538808,6198.87569518117,130.06997356610276,-54.015099125492725,-148.5827246061246,12.442782098538808,0.000828565888500749,2.5979536194720982e-08,0
2024-02-06 10:25:42.195584,-5.312255859375,5.8554463386535645,-7.824809551239014,0,7.5712e-05,0.00011957537748649991,2.3067522575791052e-09,0.0008092341191030146,2.6505000323320064e-08,0.00016009183285075175,5.413781899114926e-09,-42.21536149338547,143.19182755751794,-124.17254606296478,11.123576702368567,-17423.99350393916,132.21536149338547,-53.19182755751791,-145.82745393703522,11.123576702368567,0.0008335391564689591,2.7150417723641517e-08,0
2024-02-06 10:25:42.270552,-4.228268623352051,5.79083776473999,-8.183745384216309,0,7.4968e-05,0.00012312445259407434,2.2164679207891325e-09,0.0008049017014165522,2.5904541798086793e-08,0.00016604701528674106,5.2924582476077804e-09,-36.135621037499135,144.7166840095075,-117.32389226751859,10.88052140673617,-3242.1205798793726,126.13562103749915,-54.7166840095075,-152.6761077324814,10.88052140673617,0.0008310222566547097,2.6532397745311007e-08,0
2024-02-06 10:25:42.345589,-4.113409042358398,6.817395210266113,-7.757808208465576,0,7.503700000000001e-05,0.00012283666471460733,2.2249535793362824e-09,0.00080533668545419,2.5960095022433836e-08,0.00016549703168779352,5.303896517228402e-09,-31.10550437279497,138.69168857214964,-117.93379841283607,11.116681141512112,3147.2438233930206,121.10550437279498,-48.69168857214965,-152.06620158716393,11.116681141512112,0.0008312913392030621,2.65896271179094e-08,0
2024-02-06 10:25:42.435612,-3.658756494522095,6.448887348175049,-5.592226028442383,0,9.0023e-05,6.459982834676183e-05,3.629415221845121e-09,0.0009047409406645895,3.8773706674941845e-08,6.546522515064221e-05,7.034496707718801e-09,-29.56827662882933,130.93056599378585,-123.19502347306134,9.286960701373097,-20325.032937571676,119.56827662882934,-40.93056599378586,-146.80497652693867,9.286960701373097,0.0009094036525334069,3.9573439679890064e-08,0
2024-02-06 10:25:42.510452,-2.1392598152160645,6.144988059997559,-4.623098373413086,0,7.484000000000001e-05,0.00010861546916213905,2.3144512908063003e-09,0.0008091345355034472,2.5762820997612197e-08,0.00014301486034732798,5.451820138660961e-09,-19.194582784768112,126.9554768202619,-114.83153412509118,7.981876307282991,-17438.32701884161,109.19458278476812,-36.95547682026189,-155.1684658749088,7.981876307282991,0.0008288240265375133,2.6434862839758258e-08,0
2024-02-06 10:25:42.585333,-1.761180400848389,7.398871898651123,-4.524989128112793,0,7.4881e-05,0.00010853551013770973,2.3189028858819464e-09,0.0008094121846325995,2.5796001205374982e-08,0.0001428273245535467,5.457679903451429e-09,-13.389157670673919,121.4490489555284,-111.26658831901668,8.849891998579459,11591.935087625268,103.38915767067392,-31.449048955528387,-158.73341168098332,8.849891998579459,0.0008290522819651933,2.6468797832738772e-08,0
2024-02-06 10:25:42.660512,-2.366586208343506,7.863095760345459,-5.776480197906494,0,7.517899999999999e-05,0.00010792047291294017,2.351154827356492e-09,0.00081168621781379,2.6037544867339485e-08,0.00014129240562396988,5.5000137432478776e-09,-16.750420895296998,126.30218714629022,-112.27859205047552,10.039757402183096,15827.098040724632,106.750420895297,-36.30218714629022,-157.7214079495245,10.039757402183096,0.0008309301345778815,2.6715759822936612e-08,0
2024-02-06 10:25:42.735656,-2.163188934326172,8.832223892211914,-5.544368267059326,0,7.5144e-05,0.00010799974397793688,2.347376223560902e-09,0.0008113940497198703,2.600914096265765e-08,0.00014149052047210677,5.495065042041197e-09,-13.761980528650085,122.11826669636294,-111.31372420036612,10.650238716973654,8124.152491091213,103.76198052865008,-32.118266696362916,-158.68627579963388,10.650238716973654,0.0008306887600079701,2.6686725699617e-08,0
2024-02-06 10:25:42.810138,-0.1435744911432266,6.956183910369873,-3.969834566116333,0,7.448200000000001e-05,0.00010876328267176723,2.2756276617398514e-09,0.0008061680867372158,2.5473727895490365e-08,0.00014463972160988785,5.400355931912059e-09,-1.1824075761731736,119.71303256744412,-92.07127738405387,8.010536480893636,-35440.807659300466,91.18240757617318,-29.713032567444124,-177.92872261594613,8.010536480893636,0.0008262306486680748,2.6139111276776366e-08,0
2024-02-06 10:25:42.885271,0.6389064788818359,6.039700031280518,-3.761651515960693,0,7.5133e-05,0.00010892451323377615,2.3464850393071048e-09,0.0008103982469602229,2.5999920237108873e-08,0.0001421231228901718,5.493697237796827e-09,6.038546117394509,121.9155138950264,-80.36045636216353,7.143962491792385,-11533.866464819073,83.9614538826055,-31.915513895026393,170.36045636216355,7.143962491792385,0.0008299450887374854,2.667737906384906e-08,0
2024-02-06 10:25:42.960339,1.462066888809204,6.939433574676514,-2.871489763259888,0,7.5068e-05,0.00010885623159932619,2.339407165100028e-09,0.0008099764251180293,2.5947258060266325e-08,0.0001423386999817465,5.484452228553488e-09,11.897619390245929,112.47943445505939,-63.01632193395002,7.6510673363398265,6755.273146313233,78.10238060975408,-22.479434455059394,153.01632193395002,7.6510673363398265,0.0008295612056487949,2.662352799644447e-08,0
2024-02-06 10:25:43.035424,1.8162171840667725,8.009063720703125,-2.354621648788452,0,7.5085e-05,0.00010888409701394565,2.341257957893242e-09,0.0008101034873450401,2.596102873952227e-08,0.00014229427803474405,5.4868716088666294e-09,12.776885957767824,106.38305243152526,-52.35551029228279,8.54330086388895,11882.979657043665,77.22311404223218,-16.383052431525257,142.3555102922828,8.54330086388895,0.000829681305292922,2.663760991703059e-08,0
2024-02-06 10:25:43.110510,2.1655819416046143,9.12415885925293,-1.3304568529129028,0,7.5086e-05,0.00010888608791350849,2.341366842985706e-09,0.0008101120539563302,2.5961838847292923e-08,0.00014229243549549318,5.4870139022233945e-09,13.351861769226232,98.29622481583414,-31.565092681704904,9.47154345775548,12362.392374963776,76.64813823077378,-8.296224815834144,121.5650926817049,9.47154345775548,0.000829689615040282,2.6638438328652705e-08,0
2024-02-06 10:25:43.200613,1.718108057975769,9.858781814575195,-1.021771788597107,0,9.0103e-05,0.0001380467742753578,4.195462238730808e-09,0.0009526454640057686,3.9197503670911334e-08,0.00012463072674071527,7.491206465873964e-09,9.88575979847027,95.91705350951666,-30.740267779883034,10.059398180520184,6524.252497305342,80.11424020152973,-5.917053509516663,120.74026777988303,10.059398180520184,0.0009706302643264924,4.012685349914787e-08,0
2024-02-06 10:25:43.275381,0.7226582169532776,9.442415237426758,-0.3134709596633911,0,7.4768e-05,0.00011933219886233932,2.222008962197515e-09,0.0008046535356095436,2.5723413591360927e-08,0.00013486870051300265,5.501494607406082e-09,4.376497570988044,91.90141702857333,-23.449987167865817,9.475215272333996,-7813.274504951153,85.62350242901195,-1.9014170285733225,113.44998716786583,9.475215272333996,0.0008245587016291356,2.6398821442170792e-08,0
2024-02-06 10:25:43.350408,0.5384043455123901,9.246196746826172,0.4690099954605102,0,7.5027e-05,0.00011949550646417863,2.252937150037299e-09,0.0008070737108615044,2.5932132269778928e-08,0.0001348888428181384,5.536428209267464e-09,3.33255957897,87.09618103879849,41.0594837583205,9.273726537704645,-2685.54966384569,86.66744042103001,2.9038189612015057,48.9405162416795,9.273726537704645,0.0008269474897148586,2.6612088365547344e-08,0
2024-02-06 10:25:43.425287,0.363722026348114,9.286876678466797,1.131845474243164,0,7.4879e-05,0.00011942874911266095,2.235256755124613e-09,0.0008057022634280327,2.5812786847681502e-08,0.00013477037951338032,5.516473426814932e-09,2.2428521575732634,83.05130077297069,72.18503161240402,9.362662352721367,1187.7270665570036,87.75714784242675,6.948699227029322,17.814968387595986,9.362662352721367,0.0008255800497843019,2.6490145652184033e-08,0
2024-02-06 10:25:43.500619,0.4259376525878906,9.303627014160156,1.229954719543457,0,7.533199999999999e-05,0.00011960760702993995,2.2893984897909107e-09,0.0008099130125144126,2.617872370768246e-08,0.00013530532725727296,5.577645574398484e-09,2.6212788614118425,82.469074884824,70.89885012643374,9.394236909649976,419.1387050471115,87.37872113858816,7.5309251151760135,19.101149873566257,9.394236909649976,0.0008298027470934265,2.686404754615059e-08,0
2024-02-06 10:25:43.575647,-0.2656128108501434,11.497923851013184,2.4479448795318604,0,7.5028e-05,0.00011958323765399582,2.2530414813989538e-09,0.0008067511767829063,2.5932990750909274e-08,0.00013474628651821355,5.5365977291046114e-09,-1.3233508046379379,77.98099849136331,96.1926181638624,11.758623949349339,31513.395528327594,91.32335080463794,12.019001508636698,-6.192618163862408,11.758623949349339,0.0008266221468717522,2.66129690116976e-08,0
2024-02-06 10:25:43.650662,1.318492412567139,12.050684928894045,-0.7130866050720215,0,7.5015e-05,0.00011957639393658466,2.251486943793615e-09,0.000806598110825837,2.5922503980539816e-08,0.00013473500993942955,5.5348461006776365e-09,6.244022720899877,93.38646853318261,-28.40606619106958,12.143554751546366,5131.384419076554,83.75597727910012,-3.3864685331826068,118.40606619106958,12.143554751546366,0.0008264699324706644,2.6602254179624742e-08,0
2024-02-06 10:25:43.725326,-1.1342384815216064,6.422565460205078,-0.308685153722763,0,7.466399999999999e-05,0.00011954405737168616,2.209521304589012e-09,0.00080335605538255,2.5639957024370236e-08,0.00013491433088309802,5.487522641363282e-09,-10.015286564635502,92.75166627571559,-164.77557010567716,6.529251913329164,-75194.24137760104,100.0152865646355,-2.7516662757155896,-105.22442989432284,6.529251913329164,0.0008233308023208714,2.6313538062116617e-08,0
2024-02-06 10:25:43.799911,0.4091872870922088,10.88533878326416,0.4737958014011383,0,7.4585e-05,0.00011957269689386611,2.2000761927955246e-09,0.000802672393164933,2.5576518900652624e-08,0.00013490780901251472,5.476864666837407e-09,2.152773696972132,87.50771412785858,49.18491584362467,10.903325966134283,58645.492428841164,87.84722630302787,2.4922858721414256,40.81508415637533,10.903325966134283,0.0008226668326389185,2.6248708556963304e-08,0
2024-02-06 10:25:43.875426,-0.4977248907089233,8.803508758544922,1.5864980220794678,0,7.5515e-05,0.00011953152690818434,2.3112596568634774e-09,0.0008118277072718742,2.6327261447355735e-08,0.0001358658456404332,5.602774416251027e-09,-3.235892598722945,79.78426056936219,107.41797148386759,8.959155791851732,-25745.483338178517,93.23589259872296,10.215739430637813,-17.417971483867582,8.959155791851732,0.0008317520906080729,2.7015878621252824e-08,0
2024-02-06 10:25:43.965086,-0.2345049977302551,8.303391456604004,2.065079689025879,0,8.966e-05,0.00011435283102219825,3.9654067783261094e-09,0.0009328162590435151,3.866625589912133e-08,0.0001616916290022258,7.707249655661234e-09,-1.6177216422802703,76.03371054217196,96.47860478735264,8.559547674824415,-4456.9274707485665,91.61772164228027,13.966289457828042,-6.478604787352633,8.559547674824415,0.0009536073227425023,3.962581852061381e-08,0
2024-02-06 10:25:44.039809,-0.284756064414978,9.162445068359377,2.7087719440460205,0,7.4723e-05,0.00011823093226482992,2.2283549422169385e-09,0.000802372658956826,2.5706997465035778e-08,0.00012603811808062828,5.558340039572938e-09,-1.7801002593979813,73.53028958365549,96.00110170383094,9.55870969805941,13371.54588593866,91.78010025939798,16.469710416344515,-6.001101703830928,9.55870969805941,0.0008207716152468751,2.639527284214691e-08,0
2024-02-06 10:25:44.115540,-0.4881532490253448,8.762829780578613,2.871489763259888,0,7.573100000000001e-05,0.000117841385970856,2.347335390607726e-09,0.0008114069974806909,2.6520342411880297e-08,0.0001288505699811105,5.686803938356056e-09,-3.188495405591958,71.8565588147517,99.64804510803519,9.2342261624045,-4284.685738401838,93.18849540559196,18.14344118524832,-9.648045108035179,9.2342261624045,0.0008299821547434736,2.722458969594727e-08,0
2024-02-06 10:25:44.190521,-1.4070299863815308,9.145694732666016,1.9502201080322263,0,7.4981e-05,0.00011855207968413359,2.2586878409871045e-09,0.0008046913007882241,2.591430555002945e-08,0.00012704242877937595,5.590844063820873e-09,-8.746162430913511,77.96258673950628,125.80940856114232,9.456575701355376,2965.411756990121,98.74616243091351,12.03741326049373,-35.80940856114232,9.456575701355376,0.0008232390077443125,2.6606586407302822e-08,0
2024-02-06 10:25:44.265419,0.3517574965953827,9.741528511047363,4.711636066436768,0,7.4898e-05,0.00011859587349245972,2.248846200930275e-09,0.00080390748102361,2.5847548700584255e-08,0.00012676596174813546,5.58031101561398e-09,2.0679986033130433,64.188572587168,85.73037902044925,10.82684744006802,18295.171282446045,87.93200139668696,25.811427412832014,4.269620979550757,10.82684744006802,0.0008224365193211542,2.653851831009968e-08,0
2024-02-06 10:25:44.340567,2.002864122390747,12.82120132446289,-0.9404128789901732,0,7.5148e-05,0.00011889020119483299,2.2785319602661876e-09,0.0008067278222530489,2.6048878113493843e-08,0.0001272373646465663,5.612061431413319e-09,8.878702266816333,94.19503376219855,-25.15165341024584,13.010728053346577,29061.06101664125,81.12129773318367,-4.19503376219855,115.15165341024584,13.010728053346577,0.0008253084308908386,2.674380287796726e-08,0
2024-02-06 10:25:44.415553,1.0959519147872925,9.181588172912598,0.8758043646812439,0,7.4986e-05,0.00011863919709582157,2.259292079004644e-09,0.0008049455963037614,2.591833256659074e-08,0.0001272425979362253,5.591448554444113e-09,6.806852957842732,84.55121184103825,38.6292829435418,9.288148645542293,-49643.65892038892,83.19314704215728,5.4487881589617535,51.3707170564582,9.288148645542293,0.0008235310260250789,2.661068696346726e-08,0
2024-02-06 10:25:44.490528,2.8619179725646973,5.977484226226807,-0.2345049977302551,0,7.4975e-05,0.00011861742881144114,2.2579871675621548e-09,0.0008048622214055661,2.590947862359334e-08,0.00012723907078970707,5.590048905266121e-09,25.58430824877532,92.24664077664681,-4.684339890001443,6.631431576246533,-35434.70582588542,64.41569175122468,-2.2466407766468066,94.68433989000144,6.631431576246533,0.0008234458518926232,2.660165850766795e-08,0
2024-02-06 10:25:44.565654,1.6056413650512695,10.899696350097656,0.4331163763999939,0,7.5126e-05,0.00011895472954143113,2.275923865517796e-09,0.0008061364485390785,2.6031109023174155e-08,0.00012725406594879665,5.609263137089877e-09,8.380008830196303,87.7244603271811,15.096044583271748,11.02583577389949,58493.78640754141,81.6199911698037,2.2755396728188924,74.90395541672825,11.02583577389949,0.0008247422619485278,2.672568613448732e-08,0
2024-02-06 10:25:44.639888,1.9813278913497925,9.609918594360352,1.0002355575561523,0,7.4234e-05,0.00011735494125307626,2.170529752343445e-09,0.0007969891602738502,2.5316115001643585e-08,0.0001266147909862522,5.496037626896845e-09,11.649735409706912,84.05784152488991,26.78605550963143,9.862893428090619,-15665.898992494956,78.3502645902931,5.942158475110085,63.21394449036857,9.862893428090619,0.0008154723840370207,2.599660185059804e-08,0
2024-02-06 10:25:44.729814,1.6774286031723022,8.559432029724121,1.0935590267181396,0,8.9926e-05,0.00014606154470909663,4.237295501202655e-09,0.000939545885270417,3.8940968968983914e-08,0.0001430427032944683,7.611770327023379e-09,11.087976875365241,82.71929396649595,33.10136814459393,8.790535520383527,-11924.89277524956,78.91202312463477,7.280706033504059,56.89863185540607,8.790535520383527,0.0009615308941147801,3.990354351331764e-08,0
2024-02-06 10:25:44.805562,1.2945632934570312,9.822887420654297,1.4572809934616089,0,7.5748e-05,0.00012499309415389128,2.3157891663029325e-09,0.0008092336226866844,2.6543871037076013e-08,0.00012495979839141405,5.711900592572157e-09,7.507772385508651,81.56139685284188,48.383983074809066,10.014423562717885,16157.364449679977,82.49222761449136,8.438603147158119,41.616016925190934,10.014423562717885,0.0008283098942345198,2.7250060137091715e-08,0
2024-02-06 10:25:44.880470,1.019378900527954,9.363449096679688,2.108151912689209,0,7.490800000000001e-05,0.0001240212384324176,2.2112031466166846e-09,0.0008011753613494042,2.586749926378087e-08,0.00012346231657083074,5.607563304288016e-09,6.213200712601584,77.31160339093714,64.1943067006011,9.651819352636497,-4840.6606781837445,83.78679928739842,12.688396609062876,25.805693299398904,9.651819352636497,0.0008200647357548641,2.6560529055892482e-08,0
2024-02-06 10:25:44.955574,0.8542681932449341,9.21987533569336,1.8521108627319336,0,7.5104e-05,0.00012420485584760732,2.2355293038561264e-09,0.0008029965271437767,2.60247081088532e-08,0.000123850422322822,5.631799952699594e-09,5.293630439090666,78.64146145945787,65.23894382125962,9.442785076425617,-2783.26422308906,84.70636956090934,11.358538540542133,24.761056178740375,9.442785076425617,0.0008219301648745059,2.672078206427791e-08,0
2024-02-06 10:25:45.030411,0.4594383537769317,9.554882049560549,2.227797508239746,0,7.4837e-05,0.0001240294760235799,2.2023900205513225e-09,0.0008004900970328452,2.5810642644525618e-08,0.00012330575455529727,5.598804603086365e-09,2.752898350366761,76.87550340617366,78.3472666277191,9.821911031955791,5066.022896831437,87.24710164963325,13.124496593826345,11.65273337228091,9.821911031955791,0.0008193729404104025,2.6502573620491453e-08,0
2024-02-06 10:25:45.105570,1.49317467212677,12.694377899169922,2.605876922607422,0,7.5159e-05,0.0001243438467207504,2.2423781255131598e-09,0.0008040722278845908,2.6068977178837325e-08,0.00012408397613866367,5.638634349728093e-09,6.70858337772983,78.39958696951606,60.187172084112106,13.044822550889398,42881.24534564865,83.29141662227018,11.600413030483933,29.812827915887894,13.044822550889398,0.0008230372853078912,2.6765911681436422e-08,0
2024-02-06 10:25:45.180574,0.3709007501602173,8.841794967651367,1.2802058458328247,0,7.5004e-05,0.00012419938087552317,2.2231160253744486e-09,0.0008024031744874122,2.5944475335153493e-08,0.00012378280472410955,5.619424674211228e-09,2.402068334038306,81.76138253895363,73.84266050341807,8.941690702778697,-54705.50701443524,87.5979316659617,8.238617461046372,16.157339496581923,8.941690702778697,0.0008213394690277016,2.6638993579859554e-08,0
2024-02-06 10:25:45.255642,-0.7106937170028687,6.90114688873291,0.4522596299648285,0,7.5068e-05,0.0001241885075005842,2.231064437802483e-09,0.0008029069486268165,2.599584525909314e-08,0.00012383824361933508,5.627348547758217e-09,-5.879705510133714,86.25054093718539,147.52880817554802,6.952370294521948,-26500.245221089528,95.87970551013372,3.7494590628146156,-57.52880817554802,6.952370294521948,0.0008218383442813858,2.669135948089379e-08,0
2024-02-06 10:25:45.330541,-0.49054616689682,11.402207374572754,1.622391700744629,0,7.489899999999999e-05,0.00012429001227077374,2.2100680028818027e-09,0.0008013603151915671,2.5860284675300484e-08,0.00012366293558189011,5.6064346981157135e-09,-2.4634619216057354,81.90188497668436,106.82321068771026,11.527494237051846,61083.912235542506,92.46346192160574,8.098115023315643,-16.823210687710258,11.527494237051846,0.0008203163313935225,2.6553169944268025e-08,0
2024-02-06 10:25:45.405227,0.2967205941677093,8.947083473205566,2.002864122390747,0,7.4686e-05,0.0001243106546942694,2.1835920318500267e-09,0.0007991931157162787,2.5689825734908805e-08,0.0001232768458367262,5.580135611394632e-09,1.8994579771012103,77.38198435558623,81.57303144198761,9.173320580916787,-31520.949791594925,88.1005420228988,12.618015644413772,8.426968558012405,9.173320580916787,0.0008181442145479384,2.6379407383280925e-08,0
2024-02-06 10:25:45.481069,0.4785816073417663,8.87051010131836,1.7875022888183594,0,7.584200000000001e-05,0.0001247587793667419,2.327554164737293e-09,0.0008094916848023537,2.6619645549608586e-08,0.00012546767762240508,5.723909945954011e-09,3.0882268057675217,78.60686667917281,75.01131080778198,9.061465347558736,-1474.845512487162,86.91177319423248,11.393133320827188,14.988689192218022,9.061465347558736,0.0008286034509469486,2.7327388873545408e-08,0
2024-02-06 10:25:45.570831,-0.5168681740760803,9.547703742980955,2.2038683891296387,0,8.9762e-05,0.00012449230486227106,4.0623417109712215e-09,0.0009376824531586768,3.877997754981735e-08,0.00015324761754092312,7.663768400290774e-09,-3.098701726452053,77.00223738208595,103.19890366675386,9.812381736852178,8365.637901266038,93.09870172645206,12.997762617914058,-13.19890366675387,9.812381736852178,0.0009582439925267279,3.973817591478413e-08,0
2024-02-06 10:25:45.645541,-0.600619912147522,9.08108615875244,2.1201164722442627,0,7.471e-05,0.00013290252019918989,2.1251882575586656e-09,0.0007974821803582312,2.5721128517969095e-08,0.00012070530747422313,5.601998686626783e-09,-3.7840118911847878,76.85881933496914,105.81719873291686,9.34461149312451,-6261.146348918046,93.78401189118479,13.141180665030861,-15.817198732916863,9.34461149312451,0.0008174415447704265,2.6409757035098155e-08,0
2024-02-06 10:25:45.719843,-0.9882710576057434,9.162445068359377,2.053115129470825,0,7.430200000000001e-05,0.00013322665395701955,2.0708979060308007e-09,0.0007937604999879006,2.5396515011178496e-08,0.00011985396822747327,5.552924594383639e-09,-6.1561835590561,77.36983164925843,115.7039305442432,9.441523237744333,1304.2952359266535,96.1561835590561,12.630168350741576,-25.703930544243203,9.441523237744333,0.0008137383156552834,2.6078852819883166e-08,0
2024-02-06 10:25:45.795573,1.2203831672668457,10.031070709228516,3.464931011199951,0,7.573000000000001e-05,0.00013339238200331757,2.2612638977064814e-09,0.0008074646702530984,2.653978978273057e-08,0.0001237938531719122,5.7268891388628005e-09,6.936533233834934,70.94407110601163,70.59722926114951,10.682577477409918,16387.88115232517,83.06346676616506,19.055928893988366,19.402770738850492,10.682577477409918,0.0008277183333517585,2.7244651132569588e-08,0
2024-02-06 10:25:45.870304,1.6487137079238892,9.083478927612305,3.80233097076416,0,7.4731e-05,0.0001319592681141598,2.1287207484728003e-09,0.0007979169527094963,2.5737901662060748e-08,0.00012016385581192111,5.605032263225375e-09,10.287578710715202,67.28588583328762,66.55815331461,9.984265978543704,-9344.334999748624,79.7124212892848,22.714114166712385,23.44184668539001,9.984265978543704,0.0008176332087837562,2.642702065429785e-08,0
2024-02-06 10:25:45.945544,0.4379021823406219,11.52663803100586,-1.890397429466248,0,7.524e-05,0.0001324903118582321,2.1960231665757745e-09,0.0008031622274754647,2.6145376313417825e-08,0.00012065044289818143,5.666319502247097e-09,2.1756462467887325,99.31373827982698,-76.95772078891592,11.688829926920057,22655.023237325273,87.82435375321127,-9.313738279826985,166.9577207889159,11.688829926920057,0.0008229093362887367,2.684232473203305e-08,0
2024-02-06 10:25:46.020509,1.4716384410858154,7.611840724945068,0.9763064980506896,0,7.4965e-05,0.00013222775002251096,2.1596244330671714e-09,0.0008005306866465215,2.5924868537726045e-08,0.00012077613040125107,5.6331233484184236e-09,10.94230078577229,82.69105997274687,33.560878254566326,7.814026702113946,-51688.16414068047,79.05769921422771,7.3089400272531355,56.43912174543368,7.814026702113946,0.0008203172750914532,2.6617566850649127e-08,0
2024-02-06 10:25:46.095629,1.524282455444336,6.968148231506348,0.1483602970838546,0,7.512000000000001e-05,0.00013245993389199206,2.1801377285705474e-09,0.0008016606357906465,2.6049038365214937e-08,0.00012086329207787401,5.651850403660557e-09,12.339087512186005,88.78028789289435,5.559158574411177,7.134461266134344,-9046.39824253996,77.660912487814,1.2197121071056627,84.44084142558881,7.134461266134344,0.0008214702334441803,2.6744136053597513e-08,0
2024-02-06 10:25:46.170501,0.1722893863916397,11.837716102600098,0.7418015003204346,0,7.4872e-05,0.00013224955898360439,2.1473137514539714e-09,0.0007993287086132172,2.5850515686508847e-08,0.00012075291201499587,5.621889994353039e-09,0.8338397107001176,86.41429199393536,76.9244184852313,11.86218679773247,63144.10636283425,89.1661602892999,3.585708006064646,13.075581514768698,11.86218679773247,0.00081914442928261,2.654177395567655e-08,0
2024-02-06 10:25:46.245535,1.6463208198547363,8.719757080078125,2.0890088081359863,0,7.5034e-05,0.00013239686641031034,2.168750111910879e-09,0.0008009938639410142,2.598014181488574e-08,0.00012098220764998084,5.641470539045903e-09,10.691787823061103,76.52746118055325,51.758812702587086,9.116385993250258,-36594.08807316965,79.3082121769389,13.47253881944676,38.241187297412914,9.116385993250258,0.0008208268970217098,2.6673909267529776e-08,0
2024-02-06 10:25:46.335594,0.7537660598754883,8.743685722351074,1.8927903175354004,0,9.0059e-05,0.00015042751909428366,4.293468308014141e-09,0.0009321879779942635,3.900067040242451e-08,0.00015089547358158712,7.683951619298056e-09,4.927110268501833,77.78536106652828,68.28606480797244,8.977909471052936,-1537.6200290623096,85.07288973149818,12.214638933471715,21.71393519202756,8.977909471052936,0.0009562281677326317,3.99816117038594e-08,0
