timestamp,ax,ay,az,fall_state,time_interval,vx,dx,vy,dy,vz,dz,angle_xy,angle_yz,angle_zx,g_force,jerk,orientation_xy,orientation_yz,orientation_zx,magnitude_acceleration,magnitude_velocity,magnitude_displacement,impact_detection
2024-02-06 10:09:00.744163,0.4737958014011383,9.621883392333984,1.5123178958892822,0,0.0,0.0,0.0,0.0,0.0,0.0,0.0,2.819052113925184,81.06762209063643,72.60468838525235,9.751524388285397,inf,87.18094788607482,8.932377909363561,17.395311614747666,9.751524388285397,0.0,0.0,1
2024-02-06 10:09:00.819065,0.5144752264022827,9.600347518920898,1.524282455444336,0,7.4902e-05,3.701173826226592e-05,1.3861266096601208e-09,0.0007198917698574066,2.6960666672929734e-08,0.00011372371975779532,4.259067028649192e-09,3.067502499142629,80.97824557008586,71.34945235647297,9.73420742775742,-231.1949017112544,86.93249750085738,9.021754429914145,18.650547643527045,9.73420742775742,0.0007297582568996211,2.733017647914771e-08,0
2024-02-06 10:09:00.894707,0.4379021823406219,9.648205757141112,1.438137769699097,0,7.5642e-05,3.7364117903500795e-05,1.413645676441455e-09,0.0007270137345695497,2.7496021709567716e-08,0.00011481981524109841,4.343628136598784e-09,2.598694575305007,81.5220526828576,73.06490011695806,9.764623541031403,402.10614835650637,87.401305424695,8.477947317142407,16.93509988304194,9.764623541031403,0.0007369726165411238,2.7872866902071508e-08,0
2024-02-06 10:09:00.969533,0.4307234585285187,9.664956092834473,1.4883887767791748,0,7.4826e-05,3.700971864202619e-05,1.3833011511308799e-09,0.0007191339645347596,2.6905993448333157e-08,0.00011362579241013528,4.25042232867708e-09,2.5517257998759133,81.2453107548786,73.86013400645145,9.788370657315097,317.3645027623282,87.44827420012409,8.754689245121401,16.139865993548558,9.788370657315097,0.0007289953353227125,2.727475197849805e-08,0
2024-02-06 10:09:01.044500,0.4474738240242004,9.609918594360352,1.5362470149993896,0,7.4967e-05,3.7071631550446154e-05,1.3885238863194492e-09,0.0007204928432002068,2.700748713827847e-08,0.00011383902923345567,4.266458598602953e-09,2.6659805518500037,80.91751287764433,73.76035949465467,9.742218592523686,-615.6317418518902,87.33401944815,9.082487122355683,16.23964050534535,9.742218592523686,0.0007303722116464627,2.7377637390409528e-08,0
2024-02-06 10:09:01.119285,0.4450809061527252,9.547703742980955,1.5075321197509766,0,7.478500000000001e-05,3.699040907000006e-05,1.3817842406229888e-09,0.0007187494995675089,2.6876516085086614e-08,0.0001135620453321934,4.2457651008174794e-09,2.6689987375788546,81.02737367898742,73.55139206148773,9.67622844236509,-882.3982103175234,87.33100126242114,8.972626321012585,16.448607938512275,9.67622844236509,0.0007286051548210055,2.7244870450249404e-08,0
2024-02-06 10:09:01.209678,0.4833674430847168,9.650598526000977,1.5099250078201294,0,9.0393e-05,4.423601998744905e-05,2.015675292987321e-09,0.0008685730504746438,3.926398126561557e-08,0.0001371102807557583,6.202011933607853e-09,2.8673651571796603,81.10764012497229,72.24873897191557,9.779957542051351,1147.5346507612376,87.13263484282035,8.892359875027712,17.751261028084436,9.779957542051351,0.0008804403435577455,3.980186080747964e-08,0
2024-02-06 10:09:01.284540,0.4857603311538696,9.418486595153809,1.5793193578720093,0,7.4862e-05,3.6710258256599306e-05,1.3870869692831636e-09,0.0007204920699663163,2.6924096072831295e-08,0.00011312075363397599,4.2588428360543724e-09,2.9524253314687456,80.48103368201593,72.90337207525255,9.562327252116189,-2907.0862378130673,87.04757466853125,9.51896631798406,17.096627924747448,9.562327252116189,0.0007302415838942152,2.7294114785089043e-08,0
2024-02-06 10:09:01.358846,0.7537660598754883,9.509416580200195,1.5194966793060305,0,7.4306e-05,3.636566991989315e-05,1.3667718612500987e-09,0.0007152301128835678,2.6524965305999026e-08,0.00011225928277564049,4.196187185932499e-09,4.532087130868908,80.9215315972662,63.6156922913739,9.659505014607563,1307.8050560031954,85.4679128691311,9.078468402733796,26.38430770862611,9.659505014607563,0.0007248991122173243,2.688958602702059e-08,0
2024-02-06 10:09:01.434305,1.5960696935653689,9.143301963806152,1.2921704053878784,0,7.5459e-05,3.7720350231751794e-05,1.4094824518675217e-09,0.0007259834051241874,2.7355824899130493e-08,0.00011388020884996652,4.326556602854661e-09,9.901873281845484,81.95598708858846,38.99346591380976,9.371078573174998,-3822.2934498544187,80.09812671815452,8.044012911411546,51.00653408619025,9.371078573174998,0.0007358283980012106,2.7731694660292862e-08,0
2024-02-06 10:09:01.509700,1.531461238861084,9.356270790100098,0.5192610621452332,0,7.5395e-05,3.762026924191416e-05,1.4070715520443647e-09,0.0007253914187960624,2.730938090476505e-08,0.00011382224304300548,4.319270124394087e-09,9.295903610352934,86.82341625109721,18.729870204903587,9.494988608443636,1643.478151981407,80.70409638964708,3.1765837489027877,71.27012979509641,9.494988608443636,0.0007352302347782901,2.7684620823872625e-08,0
2024-02-06 10:09:01.584559,1.416601538658142,10.150715827941896,1.0839873552322388,0,7.4859e-05,3.6830188417538995e-05,1.387118829391631e-09,0.000720163546382427,2.692197217409721e-08,0.0001133925724671483,4.2583765538373646e-09,7.9447041998613,83.90452730135897,37.42331505743567,10.30625151668938,10837.212736554651,82.0552958001387,6.095472698641042,52.57668494256433,10.30625151668938,0.0007299656648142453,2.7291948542820995e-08,0
2024-02-06 10:09:01.659004,1.524282455444336,9.485487937927246,0.9428057670593262,0,7.4445e-05,3.6221425430759785e-05,1.3719971453250332e-09,0.0007160988522028921,2.662466585759005e-08,0.00011297302629083395,4.2115188748944625e-09,9.129169801701062,84.32375541210592,31.737798839581814,9.653331090299297,-8770.507440259038,80.87083019829895,5.676244587894068,58.262201160418186,9.653331090299297,0.0007258598090925307,2.699059279505905e-08,0
2024-02-06 10:09:01.734008,1.5194966793060305,9.56684684753418,1.2514909505844116,0,7.5004e-05,3.707216169892252e-05,1.3924827029277797e-09,0.0007214239797754287,2.7026453489127995e-08,0.00011358633222341538,4.274842215599196e-09,9.024869496363598,82.54714980545307,39.475622049043416,9.767274868764133,1519.1693571654378,80.9751305036364,7.452850194546931,50.524377950956584,9.767274868764133,0.000731251501629923,2.7397855249019416e-08,0
2024-02-06 10:09:01.809670,1.8186101913452148,9.128944396972656,0.9308412671089172,0,7.5662e-05,3.817039885936677e-05,1.4172375053514565e-09,0.0007275748950948713,2.750317411896032e-08,0.00011430431952303648,4.3498182400237775e-09,11.266603399722195,84.17790469509875,27.105278196136897,9.354754635779393,-5452.145502164095,78.73339660027781,5.822095304901257,62.894721803863106,9.354754635779393,0.0007374874133048106,2.7881070056324365e-08,0
2024-02-06 10:09:01.884260,2.036364793777466,9.40173625946045,0.9715206623077391,0,7.459e-05,3.6104132267341026e-05,1.3774263566675414e-09,0.0007176424502630233,2.6728537621848492e-08,0.00011328465352886916,4.227830550467957e-09,12.221175675970514,84.10032722472971,25.505145204652383,9.668675124497698,4208.613603945629,77.7788243240295,5.8996727752703,64.49485479534762,9.668675124497698,0.0007274253277907289,2.7095877508102276e-08,0
2024-02-06 10:09:01.973901,2.115330696105957,9.179195404052734,0.6963362693786621,0,8.9641e-05,6.734771667645873e-05,2.1559532458941066e-09,0.0008574732514967918,3.858207083544198e-08,0.00012583611086827517,6.027333862938667e-09,12.977161582233775,85.66183552035314,18.220797197210015,9.44548232859091,-2489.8516962861695,77.02283841776624,4.338164479646856,71.77920280279,9.44548232859091,0.0008692702794715035,3.910950111986691e-08,0
2024-02-06 10:09:02.049421,1.1820966005325315,9.353878021240234,0.7824809551239014,0,7.552000000000001e-05,4.406623124854269e-05,1.3693150665696344e-09,0.0007266204865775108,2.739757699776837e-08,0.00011539492185467482,4.324122156398279e-09,7.202574448613614,85.218163489749,33.50230136632505,9.460690400513236,201.37807100539052,82.7974255513864,4.781836510251001,56.49769863367496,9.460690400513236,0.0007370448780369042,2.7770493001090848e-08,0
2024-02-06 10:09:02.124535,-2.409658432006836,11.895146369934082,-0.3804723918437958,0,7.5114e-05,4.431542630033198e-05,1.3513735900872125e-09,0.0007223069346261023,2.710344473126403e-08,0.00011531331411632895,4.277288384496164e-09,-11.451720212147347,91.83201046944413,-171.02737320315902,12.142722930300804,35706.160366743454,101.45172021214734,-1.8320104694441322,-98.97262679684098,12.142722930300804,0.000732794872545945,2.747213356848745e-08,0
2024-02-06 10:09:02.214492,-2.5532329082489014,11.813787460327148,-0.1651106625795364,0,8.995699999999999e-05,7.483328218624042e-06,1.7357980467496444e-09,0.000898262787047386,3.913050292066382e-08,0.00011126426947792619,5.958833921140927e-09,-12.195374240095136,90.80071935170211,-176.2999888959752,12.08767281044807,-611.9603794338802,102.19537424009515,-0.8007193517021112,-93.70001110402481,12.08767281044807,0.0009051584239556198,3.961965365046645e-08,0
2024-02-06 10:09:02.274557,-2.30915641784668,9.492666244506836,-0.4067943692207336,0,6.0065e-05,8.015659908644858e-05,4.259316932480294e-10,0.0005798165299749373,1.7039129448448186e-08,0.00011981196208321302,2.5051685642281413e-09,-13.6720450644605,92.45382572448743,-170.00895719670578,9.77795466600821,-38453.64429268061,103.6720450644605,-2.453825724487427,-99.99104280329422,9.77795466600821,0.0005974673171542628,1.722757149755833e-08,0
2024-02-06 10:09:02.349643,-2.416837215423584,8.731721878051758,0.0837517827749252,0,7.5086e-05,4.466202390377225e-05,1.3633819612160832e-09,0.0007166907969694137,2.6776547727463738e-08,0.00011738575073771177,4.286641986369697e-09,-15.471458220519994,89.45045472166036,178.01529693326108,9.060412984109616,-9556.26457526827,105.47145822052,0.5495452783396402,-88.0152969332611,9.060412984109616,0.0007276124032175996,2.7151751657906353e-08,0
2024-02-06 10:09:02.424517,-2.529303789138794,9.22705364227295,-0.0095716323703527,0,7.4874e-05,4.518631485025588e-05,1.353858037308156e-09,0.0007147871667642592,2.6624811063307965e-08,0.00011737788764176888,4.2617570407014715e-09,-15.329272066367375,90.05943543436733,-179.78317688752014,9.567444182815,6771.792594296874,105.32927206636737,-0.059435434367316395,-90.21682311247986,9.567444182815,0.0007257686031565895,2.6997704880526393e-08,0
2024-02-06 10:09:02.499441,-2.158403158187866,9.191160202026367,0.016750356182456,0,7.4924e-05,4.506912217657271e-05,1.3561144232338269e-09,0.0007152476221103667,2.6660561933029832e-08,0.00011737806710986419,4.267625939570262e-09,-13.215574406591468,89.89558188183071,179.5553632114998,9.44120811268457,-1684.8549213927436,103.21557440659147,0.10441811816929983,-89.55536321149978,9.44120811268457,0.0007262148424170003,2.7034001554966203e-08,0
2024-02-06 10:09:02.574502,-1.6367491483688354,9.095443725585938,-0.06460852175951,0,7.5061e-05,4.480915424357357e-05,1.362271085168607e-09,0.0007165002544794082,2.6758636662576235e-08,0.00011737478882552216,4.2837065102018365e-09,-10.2013455628023,90.40698765986306,-177.73949799291893,9.241764907260444,-2657.081645916337,100.2013455628023,-0.40698765986305496,-92.26050200708109,9.241764907260444,0.0007274320009629195,2.7133568877219247e-08,0
2024-02-06 10:09:02.649632,-1.1533817052841189,9.959283828735352,0.3996156454086303,0,7.513000000000001e-05,4.471289472912254e-05,1.365359595858165e-09,0.0007171576425800322,2.6808097860024787e-08,0.00011738634657128806,4.291805769373026e-09,-6.605979231386454,87.70224301240566,160.8901789407839,10.033808668867916,10542.310150505413,96.60597923138646,2.2977569875943415,-70.89017894078391,10.033808668867916,0.0007280754642393613,2.7183780356320774e-08,0
2024-02-06 10:09:02.738925,-1.25866961479187,9.514202117919922,0.8375178575515747,0,8.9293e-05,2.7631953306004432e-05,1.8776696372189165e-09,0.0008550591333112714,3.7941750958499045e-08,0.00012614710747250074,6.016387924184116e-09,-7.536112913610328,84.96932446773523,146.3602343695176,9.633572925013336,-4482.274577565767,97.53611291361034,5.030675532264771,-56.3602343695176,9.633572925013336,0.0008647558840656747,3.846165665591597e-08,0
2024-02-06 10:09:02.814035,-1.2275618314743042,9.440022468566896,1.208418607711792,0,7.510999999999999e-05,4.526306360720102e-05,1.3607346247789196e-09,0.0007206452496562001,2.6767643326685213e-08,0.00011163834902908557,4.330132359403116e-09,-7.40905430614218,82.7052320191437,135.4502512960923,9.595895361486832,-501.6317870656915,97.40905430614218,7.2947679808563155,-45.45025129609229,9.595895361486832,0.0007306445385774784,2.714973985572712e-08,0
2024-02-06 10:09:02.889689,-1.019378900527954,9.109801292419434,1.3902796506881714,0,7.5654e-05,4.465189572809639e-05,1.385191493718121e-09,0.0007256908017191885,2.7161046732659328e-08,0.00011234519495537038,4.391055883366889e-09,-6.384787806278552,81.32283729083397,126.24956271401975,9.271488037921744,-4288.039278360541,96.38478780627855,8.67716270916602,-36.24956271401975,9.271488037921744,0.0007356917658377805,2.754854963258182e-08,0
2024-02-06 10:09:02.964659,-0.7561589479446411,9.413700103759766,1.3113136291503906,0,7.497e-05,4.5259129672274025e-05,1.354441923031194e-09,0.0007193557642416952,2.66668408071007e-08,0.00011142125005366557,4.314527759173798e-09,-4.592444580222082,82.06981777599466,119.96956927684235,9.534624766191847,3509.893667735136,94.5924445802221,7.930182224005336,-29.96956927684235,9.534624766191847,0.0007293392895833643,2.7047551854812972e-08,0
2024-02-06 10:09:03.039029,-1.0169858932495115,10.375649452209473,2.493410348892212,0,7.437000000000001e-05,4.579107312463226e-05,1.3271268621921227e-09,0.0007134189593749046,2.623700839001573e-08,0.00011027983286025282,4.248017434299624e-09,-5.598055947419737,76.48727502707423,112.18904644094837,10.719396299706716,15930.772267243095,95.59805594741974,13.512724972925767,-22.18904644094837,10.719396299706716,0.0007233429860786392,2.6611793007766714e-08,0
2024-02-06 10:09:03.114614,-0.9451987147331238,11.629533767700195,1.8353605270385744,0,7.5585e-05,4.4599045975282817e-05,1.382038859545321e-09,0.0007267871081809996,2.7111933576055937e-08,0.00011290956116738075,4.383604991171411e-09,-4.646542329858171,81.03161142965149,117.24817241058045,11.811350664874173,14446.707219255892,94.64654232985816,8.968388570348507,-27.248172410580445,11.811350664874173,0.0007368562577077132,2.749878117954295e-08,0
2024-02-06 10:09:03.188871,-0.2416837215423584,9.964069366455078,0.3661149442195892,0,7.4257e-05,4.538713591296973e-05,1.3222880347715214e-09,0.0007124489556999205,2.615628082963901e-08,0.00011144778145446534,4.234631715670505e-09,-1.3894666971479144,87.89569825246468,123.43002797332939,9.973721948859813,-24746.87525774485,91.38946669714792,2.104301747535313,-33.43002797332938,9.973721948859813,0.000722540043579186,2.652982431628984e-08,0
2024-02-06 10:09:03.264678,0.8231604099273682,7.942061901092529,-0.6125844717025757,0,7.5807e-05,4.5837780346468116e-05,1.3929873448725855e-09,0.0007263262074322699,2.7271331581066454e-08,0.00011125676757066602,4.4072277411649815e-09,5.91733157965732,94.41058617903323,-36.65610754664799,8.008070931018805,-25929.676914282427,84.08266842034269,-4.410586179033222,126.656107546648,8.008070931018805,0.0007362261405575797,2.766025300516866e-08,0
2024-02-06 10:09:03.339644,0.8877689242362976,10.85183811187744,-0.0191432647407054,0,7.4966e-05,4.51183345614523e-05,1.3547402985538049e-09,0.000718423372476816,2.666381438271468e-08,0.00011152240908384042,4.3135490973817616e-09,4.6768475511099785,90.10107293591179,-1.235297038434324,10.888107757265278,38417.90713452062,85.32315244889003,-0.10107293591177884,91.23529703843433,10.888107757265278,0.0007284264231632626,2.704442686632333e-08,0
2024-02-06 10:09:03.414624,0.3110780417919159,9.10740852355957,0.4355092644691467,0,7.498e-05,4.51267264902145e-05,1.3553720139811666e-09,0.0007185630872032641,2.6673873287932446e-08,0.00011152532364583852,4.3151104315108694e-09,1.9562680551881158,87.26224544895801,54.46232257891266,9.12312051233179,-23539.440449899816,88.04373194481188,2.737754551041982,35.53767742108734,9.12312051233179,0.0007285651855181644,2.705462488213602e-08,0
2024-02-06 10:09:03.504634,0.4307234585285187,9.480701446533203,0.6412993669509888,0,9.001e-05,5.070136476512256e-05,2.0755201197650245e-09,0.0008582527336285112,3.8523644181483235e-08,0.00011961754051096084,6.0521490556492165e-09,2.601250370949491,86.13025891876025,56.113040344241725,9.51212318539217,4321.771726034667,87.39874962905051,3.869741081239762,33.88695965575828,9.51212318539217,0.0008680303791733039,3.905134380505839e-08,0
2024-02-06 10:09:03.578917,0.5719050168991089,9.420879364013672,0.6389064788818359,0,7.428300000000001e-05,4.281719574859741e-05,1.3401369191653878e-09,0.0007096201529247759,2.6194675738071466e-08,0.00010955064184225443,4.250085053714709e-09,3.4739411260054087,86.12024779700462,48.16728892828064,9.459822663687211,-704.0712101686661,86.52605887399459,3.8797522029953773,41.832711071719366,9.459822663687211,0.0007193020344867697,2.657104113407356e-08,0
2024-02-06 10:09:03.669628,0.4714028835296631,9.394556999206545,0.8638398051261902,0,9.0711e-05,5.1386926842719346e-05,2.1139295821304634e-09,0.0008641701472122667,3.912178926339714e-08,0.00012189419981909635,6.151172983121044e-09,2.872595399974626,84.74636359139501,61.37842150995475,9.445958982488818,-152.83351741676907,87.12740460002539,5.253636408604986,28.621578490045255,9.445958982488818,0.0008742361554710189,3.96587950209804e-08,0
2024-02-06 10:09:03.729625,0.4139730930328369,9.327555656433104,1.3807079792022705,0,5.9997e-05,3.779020797064903e-05,7.444363228015649e-10,0.0005766546631596086,1.6995042650516246e-08,8.742467949516418e-05,2.9366629534919452e-09,2.541218403408325,81.57995615416198,73.30986661886745,9.438274353368055,-128.08355619053836,87.45878159659168,8.420043845838022,16.69013338113256,9.438274353368055,0.000584467086282041,1.7262955987720775e-08,0
2024-02-06 10:09:03.804406,0.4594383537769317,9.607525825500488,1.651106595993042,0,7.4781e-05,4.424646538546684e-05,1.3508514122499735e-09,0.0007166227854740618,2.6554949550816336e-08,0.00010983585283500793,4.394812808476578e-09,2.737837047793806,80.24865771404004,74.45019593880458,9.759189980726465,4291.405936780866,87.2621629522062,9.751342285959963,15.549804061195418,9.759189980726465,0.0007263400587381258,2.6950037565946515e-08,0
2024-02-06 10:09:03.894640,0.1124666780233383,10.083714485168455,2.373764753341675,0,9.023399999999999e-05,4.866528961367162e-05,2.0687340872508164e-09,0.0008687671537344452,3.880446491611086e-08,0.0001409340213156426,6.332386241101578e-09,0.6390104379507157,76.75341764664289,87.28740988773727,10.359956837567857,6657.876818509571,89.36098956204928,13.246582353357109,2.712590112262728,10.359956837567857,0.0008814687040305117,3.9372138291638726e-08,0
2024-02-06 10:09:03.954606,0.12921704351902,11.014555931091309,2.435980319976806,0,5.9966e-05,4.500764817184957e-05,6.510878468047392e-10,0.00054946592925477,1.7340925438152083e-08,6.814333937604074e-05,3.1682094643936437e-09,0.6721334625682779,77.52919652482589,86.9635801989445,11.28145112664097,15366.946087334707,89.32786653743172,12.470803475174124,3.036419801055506,11.28145112664097,0.0005555015846125798,1.76399875749979e-08,0
2024-02-06 10:09:04.044647,-0.368507832288742,9.413700103759766,0.1890397369861602,0,9.0041e-05,4.1409312935724876e-05,1.9505828994598897e-09,0.000856655829378843,3.848548138360504e-08,0.00010761707848262134,5.8112067479432746e-09,-2.241750657396609,88.84957844480701,152.84276487528388,9.422806571725038,-20642.202495706755,92.24175065739661,1.1504215551929864,-62.842764875283876,9.422806571725038,0.00086438149956353,3.897059371940356e-08,0
2024-02-06 10:09:04.104104,-1.268241286277771,8.068885803222656,-0.7106937170028687,0,5.9457000000000004e-05,6.643848045684399e-05,3.0137444290072667e-10,0.0005893121256892678,1.6373739414703487e-08,0.00011559421114503684,2.397859706957126e-09,-8.932485484837267,95.03352514291076,-150.7347164076483,8.198807207457374,-20586.295377628605,98.93248548483727,-5.033525142910751,-119.26528359235168,8.198807207457374,0.0006042059870773057,1.655112987531959e-08,0
2024-02-06 10:09:04.178888,-0.904519259929657,11.00737762451172,0.4714028835296631,0,7.478400000000001e-05,4.978753001098336e-05,1.1920724741209218e-09,0.0007355030704677102,2.652646067045249e-08,0.00011376040584271494,4.155518814242762e-09,-4.6976634724974105,87.54774458196518,152.47309591514644,11.054534722854013,38186.34354135428,94.69766347249741,2.452255418034835,-62.473095915146466,11.054534722854013,0.0007459121897043401,2.6876429991725934e-08,0
2024-02-06 10:09:04.269550,-0.5958341360092163,9.172017097473145,0.7346227765083313,0,9.066200000000001e-05,3.787622440062464e-05,1.888035020394678e-09,0.000895707285165548,3.947663968382493e-08,0.00012333504355775657,6.0378195870331056e-09,-3.7168356006316827,85.42073194964314,129.04464304833527,9.220660853633992,-20227.591154177284,93.71683560063168,4.579268050356858,-39.04464304833527,9.220660853633992,0.0009049517567488758,3.998030793190991e-08,0
2024-02-06 10:09:04.343925,-0.7753022313117981,9.164837837219238,1.237133502960205,0,7.437499999999999e-05,4.9042073407903334e-05,1.1802158621909296e-09,0.0007463811070048804,2.6104292862185034e-08,0.00010727804629590454,4.159821889809815e-09,-4.835441016048641,82.31228658231733,122.0750617611285,9.280401146316308,803.2308259807113,94.83544101604863,7.6877134176826765,-32.07506176112848,9.280401146316308,0.0007556444012067073,2.6459991184258403e-08,0
2024-02-06 10:09:04.419706,-0.746587336063385,9.119372367858888,1.1270596981048584,0,7.5781e-05,4.797218504203858e-05,1.2484168858812391e-09,0.0007592349067790504,2.7162740919875143e-08,0.00010894007411625329,4.3118232284595625e-09,-4.68026920937355,82.95456344018204,123.52130354232456,9.219035122892778,-809.7811248667789,94.68026920937356,7.045436559817952,-33.521303542324546,9.219035122892778,0.0007685095405770547,2.7531161591089765e-08,0
2024-02-06 10:09:04.493918,-0.5240468978881836,9.054763793945312,1.7635732889175415,0,7.4212e-05,4.896899759857358e-05,1.172366528099679e-09,0.000744977296960115,2.598268644604177e-08,0.00010667237253793423,4.1426752640593524e-09,-3.3123137473658315,78.97862739047709,106.54934959777725,9.239781559144815,279.5563554686062,93.31231374736583,11.02137260952292,-16.549349597777237,9.239781559144815,0.0007541671769406835,2.6336973944874164e-08,0
2024-02-06 10:09:04.569622,-0.5647262930870056,9.138516426086426,1.9526129961013796,0,7.570399999999999e-05,4.81567727981061e-05,1.2448223528156016e-09,0.0007585494840042586,2.710431742464119e-08,0.00010944464750655833,4.303898561012543e-09,-3.5361691566507703,77.93905901777362,106.13069815652854,9.361842541321618,1612.3452152700424,93.53616915665077,12.06094098222639,-16.13069815652854,9.361842541321618,0.0007679157019603716,2.7472115837140452e-08,0
2024-02-06 10:09:04.644343,-0.5192610621452332,10.394792556762695,2.699200391769409,0,7.472099999999999e-05,4.868955258320274e-05,1.1972223838906882e-09,0.0007489488626391883,2.6363381987265934e-08,0.00010715828122641984,4.197438221540285e-09,-2.8597739587228674,75.44357508816094,100.8892947771127,10.752070828622617,18605.58995865954,92.85977395872287,14.55642491183906,-10.88929477711269,10.752070828622617,0.0007581411271093836,2.6722270466160506e-08,0
2024-02-06 10:09:04.719633,0.12921704351902,10.413935661315918,3.374000310897827,0,7.528999999999999e-05,4.857858505990358e-05,1.224895169050152e-09,0.0007548689458172317,2.6791218153771785e-08,0.00010888610682632868,4.258902849941292e-09,0.7108946662128545,72.0482475144351,87.80676524836525,10.947631300893443,2597.4295692764713,89.28910533378715,17.95175248556491,2.193234751634752,10.947631300893443,0.0007642271838566301,2.7155257167321972e-08,0
2024-02-06 10:09:04.793919,0.5240468978881836,12.31629753112793,0.0837517827749252,0,7.4286e-05,4.825064656131717e-05,1.1762868947762996e-09,0.000743458368754625,2.603905784185672e-08,0.00010715031527530497,4.150452566046273e-09,2.4364120285853166,89.61039024064313,9.080072378011346,12.327725840055502,18578.124265165156,87.56358797141469,0.3896097593568865,80.91992762198866,12.327725840055502,0.0007526882894189802,2.639398493318852e-08,0
2024-02-06 10:09:04.868881,1.1462029218673706,7.078222274780273,-0.3254354894161224,0,7.4962e-05,4.881519100039455e-05,1.2090951478721583e-09,0.0007500137164490221,2.6543851406655556e-08,0.00010706862618246024,4.2228585682589975e-09,9.19827313648445,92.6324347278685,-15.850561792437198,7.177807462384627,-68700.38656480449,80.80172686351555,-2.6324347278684916,105.8505617924372,7.177807462384627,0.0007591885065296224,2.6904841442809817e-08,0
2024-02-06 10:09:04.943895,0.8159816861152649,9.815709114074709,0.9930568337440492,0,7.5014e-05,4.886620780020209e-05,1.2116348642409734e-09,0.0007504529586651323,2.658286354020852e-08,0.00010708598433741276,4.2284265881325136e-09,4.752082062239103,84.22303332773893,50.59050623144233,9.899501674288992,36282.48342848488,85.2479179377609,5.776966672261067,39.409493768557674,9.899501674288992,0.0007596281705384127,2.6944318222081955e-08,0
2024-02-06 10:09:05.034089,0.5575475692749023,9.590775489807127,1.1198810338974,0,9.0194e-05,5.929129484861346e-05,2.0325503093454837e-09,0.0008977481768085954,3.9092710158454114e-08,0.00012312318275281136,5.975714166347315e-09,3.327072864731245,83.33993328784551,63.532975631760806,9.6720198158385,-2522.139592993903,86.67292713526876,6.660066712154496,26.4670243682392,9.6720198158385,0.0009080895136159015,3.959899503889974e-08,0
2024-02-06 10:09:05.109520,0.9475916028022766,9.27969741821289,1.318492412567139,0,7.5431e-05,4.818111004992577e-05,1.2392427525869168e-09,0.0007584557810380457,2.6867440643609137e-08,0.00010512432915773337,4.29090515717963e-09,5.8305198947637,81.91333911013925,54.295452454908016,9.420675998105734,-3332.1024211897675,84.1694801052363,8.08666088986076,35.704547545091984,9.420675998105734,0.0007672207737910506,2.7236133286603113e-08,0
2024-02-06 10:09:05.184677,0.9571632146835328,9.13133716583252,1.5482115745544434,0,7.5157e-05,4.792015863993021e-05,1.2260768787764062e-09,0.0007559334693000314,2.6659969316312816e-08,0.00010473159071149771,4.262154896157544e-09,5.983994096072666,80.37705595519706,58.27406847349473,9.310984853131377,-1459.4933934877338,84.01600590392734,9.622944044802942,31.72593152650527,9.310984853131377,0.0007646570850420588,2.7026342571984293e-08,0
2024-02-06 10:09:05.259377,0.6436922550201416,8.731721878051758,1.5769264698028564,0,7.47e-05,4.7554363165102915e-05,1.2042609505439563e-09,0.0007518517603085039,2.6315440391347266e-08,0.00010401749666836207,4.214455729691246e-09,4.216150927323744,79.76287415756835,67.79500166533603,8.89629157379554,-5551.449522568086,85.78384907267626,10.23712584243165,22.204998334663966,8.89629157379554,0.0007605012337584911,2.6677973770979752e-08,0
2024-02-06 10:09:05.334292,0.5144752264022827,9.049978256225586,2.3426570892333984,0,7.4915e-05,4.7678866169355824e-05,1.2144985226974105e-09,0.0007537632930729387,2.647729400958577e-08,0.00010443885190095846,4.236864787162448e-09,3.253661571448354,75.48710244330184,77.6137965839432,9.36241600413446,6222.044054447293,86.74633842855165,14.512897556698162,12.386203416056802,9.36241600413446,0.0007624564578057861,2.684163050107757e-08,0
2024-02-06 10:09:05.409639,0.6269419193267822,10.497687339782717,2.852346420288086,0,7.5347e-05,4.79254122728333e-05,1.2351490468409233e-09,0.0007579855888416765,2.6803831768079324e-08,0.0001055609726590151,4.282224749267402e-09,3.4177537656466748,74.79904497895525,77.60358533928813,10.896346899551874,20358.221235316796,86.58224623435333,15.200955021044747,12.396414660711871,10.896346899551874,0.0007667999197847516,2.7171831727409335e-08,0
2024-02-06 10:09:05.484786,-0.184253916144371,11.95257568359375,3.3046059608459477,0,7.5147e-05,4.788114347251506e-05,1.225568391266389e-09,0.0007557405625393389,2.665245915294123e-08,0.00010494527742090173,4.261174124259412e-09,-0.8831682741083715,74.54513058826252,93.19131913719947,12.402356047707617,20040.841925236437,90.88316827410837,15.454869411737482,-3.1913191371994785,12.402356047707617,0.0007644932393556283,2.7018756479492722e-08,0
2024-02-06 10:09:05.559014,0.5264397859573364,9.911425590515137,1.3208853006362915,0,7.422800000000001e-05,4.7723909065336005e-05,1.1816378696252465e-09,0.0007456940539538858,2.5962549946662594e-08,0.00010281986418625064,4.165706041690926e-09,3.0403760827936996,82.40898101145838,68.27021049174674,10.012903378241207,-32190.71872428746,86.9596239172063,7.591018988541626,21.729789508253265,10.012903378241207,0.0007542606433255922,2.6321158306838676e-08,0
2024-02-06 10:09:05.634677,-0.1411815732717514,7.382121562957764,-0.0861446931958198,0,7.5663e-05,4.800033183293791e-05,1.2503200124697575e-09,0.0007581021740365025,2.704152374024569e-08,0.00010370579057208917,4.313888198980033e-09,-1.0956365622825543,90.66857518997614,-148.60973058874012,7.3839739920373,-34745.2438603268,91.09563656228255,-0.6685751899761471,-121.39026941125987,7.3839739920373,0.0007666667001592841,2.7411985293319287e-08,0
2024-02-06 10:09:05.709467,-0.3541503846645355,10.85183811187744,1.208418607711792,0,7.479e-05,4.82165442325771e-05,1.20832134606716e-09,0.0007501430506384369,2.6383174699675077e-08,0.00010321591800840294,4.223566873184648e-09,-1.8691877824594216,83.64594173880961,106.33424063808049,10.924655071571728,47341.637645867464,91.86918778245943,6.3540582611903815,-16.33424063808048,10.924655071571728,0.0007587443293291818,2.6746410316922895e-08,0
2024-02-06 10:09:05.799540,0.0933234170079231,9.332341194152832,1.3711363077163696,0,9.0073e-05,4.62234349592291e-05,1.9299844470613476e-09,0.0009043804568054674,3.9026216081807684e-08,0.00012292758689464724,5.951642465901307e-09,0.5729387287854363,81.64172694220593,86.10629230374316,9.432990840586141,-16560.61451251303,89.42706127121457,8.358273057794078,3.8937076962568478,9.432990840586141,0.0009138664061069523,3.95245800695183e-08,0
2024-02-06 10:09:05.874258,-0.0837517827749252,9.152873039245604,1.3639576435089111,0,7.471800000000001e-05,4.6149948737405255e-05,1.2207877937304377e-09,0.0007624602245285509,2.6229046750865767e-08,0.00010192890308411516,4.22530676408936e-09,-0.5242604959869345,81.52417797544496,93.5137501621415,9.254322216507994,-2391.2393811149577,90.52426049598694,8.475822024555045,-3.5137501621414957,9.254322216507994,0.0007706263121906261,2.6595233286194026e-08,0
2024-02-06 10:09:05.949063,-0.4020085632801056,9.102622032165527,1.517103672027588,0,7.4805e-05,4.612881816235186e-05,1.2248019200905765e-09,0.0007632543385641572,2.6295415334360292e-08,0.00010205422925134097,4.234180030345951e-09,-2.528769860709777,80.53767779197439,104.84138331516873,9.236933598175067,-232.45262125428243,92.52876986070977,9.462322208025617,-14.841383315168724,9.236933598175067,0.0007714273257476362,2.666228212061654e-08,0
2024-02-06 10:09:06.024448,-0.3589362204074859,9.009299278259276,1.70135760307312,0,7.5385e-05,4.5908144175082465e-05,1.2514926391684324e-09,0.0007685067957441804,2.6739626063309707e-08,0.00010298758302112017,4.293642155904964e-09,-2.281493732183904,79.30593891214266,101.91302422384102,9.175561366428663,-814.1172878742964,92.2814937321839,10.694061087857339,-11.913024223841012,9.175561366428663,0.0007767346361938031,2.7111053074244255e-08,0
2024-02-06 10:09:06.099328,-0.3924369215965271,9.394556999206545,2.110544919967652,0,7.488e-05,4.6097865893438476e-05,1.228261121626131e-09,0.0007638598220341203,2.635270349232069e-08,0.00010202507763405238,4.241876459089533e-09,-2.3920142799732287,77.33837023205461,100.53334282228793,9.63670627382479,6158.452288944005,92.39201427997322,12.661629767945398,-10.53334282228793,9.63670627382479,0.0007720206975361229,2.6720163222391577e-08,0
2024-02-06 10:09:06.174345,-0.0143574485555291,10.358899116516112,2.718343496322632,0,7.5017e-05,4.607000047908306e-05,1.2345746204726488e-09,0.0007652129337780473,2.6457444976093825e-08,0.00010235585649056828,4.25587655307707e-09,-0.07941197909199732,75.29618519454858,90.30261575062136,10.709639975577463,14302.540780791991,90.079411979092,14.703814805451422,-0.3026157506213551,10.709639975577463,0.0007734015776576013,2.6825977230877885e-08,0
2024-02-06 10:09:06.249639,0.363722026348114,11.96932601928711,2.8858470916748047,0,7.5294e-05,4.611838747310733e-05,1.2473427122040271e-09,0.0007683053929593561,2.6669837264346953e-08,0.00010313203688700592,4.284336626309864e-09,1.7405596543976904,76.44449613494122,82.81651849559496,12.317677236596277,21356.778242872115,88.25944034560231,13.555503865058784,7.183481504405047,12.317677236596277,0.0007765669961735517,2.704055516952228e-08,0
2024-02-06 10:09:06.324415,0.7394086122512817,8.877689361572266,0.9858781099319458,0,7.477599999999999e-05,4.583267663771008e-05,1.2235273865993248e-09,0.0007629060159757134,2.627325350943276e-08,0.00010212926005978974,4.231173950400643e-09,4.761085392249409,83.66319873002249,53.13010124567184,8.9628148002783,-44865.49743658362,85.23891460775059,6.336801269977516,36.86989875432817,8.9628148002783,0.0007710749699089399,2.6639889305986774e-08,0
2024-02-06 10:09:06.399625,1.880825757980347,7.408443450927734,-0.3709007501602173,0,7.520999999999999e-05,4.6401267496050347e-05,1.243542152476351e-09,0.000766440106796026,2.660512161807423e-08,0.00010226271014686021,4.275527007935486e-09,14.245065416484099,92.86609723094611,-11.155647899399513,7.652457596350717,-17422.645976965607,75.7549345835159,-2.8660972309461,101.15564789939951,7.652457596350717,0.0007746232483067652,2.6975155691730345e-08,0
2024-02-06 10:09:06.474490,1.25866961479187,10.669977188110352,0.466617077589035,0,7.4865e-05,4.5859704544247144e-05,1.2276271347993998e-09,0.0007633215792357919,2.6341237727233743e-08,0.00010224619908037874,4.2402492210937875e-09,6.727728700913547,87.49594916165273,20.340873867218892,10.754087310929428,41429.636206220675,83.27227129908646,2.504050838347269,69.65912613278111,10.754087310929428,0.0007715032281554585,2.6708567667355817e-08,0
2024-02-06 10:09:06.564589,1.0265575647354126,9.676919937133787,1.0935590267181396,0,9.009899999999999e-05,6.326627997070645e-05,2.0588397588498013e-09,0.0009183038946387765,3.915017896173633e-08,0.00011413006046688648,5.888387190065307e-09,6.055465773269553,83.55253286904598,46.810100332303,9.79247013007084,-10672.895158199191,83.94453422673045,6.447467130954026,43.189899667697,9.79247013007084,0.0009275291563030523,3.964402146085495e-08,0
2024-02-06 10:09:06.639577,1.4524952173233032,8.985369682312012,1.517103672027588,0,7.4988e-05,4.453579667586183e-05,1.2443411687466548e-09,0.0007773009654190537,2.6339036441569396e-08,9.440519844651314e-05,4.312799041345116e-09,9.182494827713626,80.41647741372414,46.24636625925351,9.22757900187468,-7533.0870032026305,80.81750517228637,9.583522586275869,43.753633740746494,9.22757900187468,0.0007842783750178709,2.6718784799941515e-08,0
2024-02-06 10:09:06.714041,1.0600582361221311,9.157659530639648,1.3113136291503906,0,7.4464e-05,4.387750767105913e-05,1.2211768830077618e-09,0.0007725474917652604,2.593297614578711e-08,9.366415311360452e-05,4.263524871236365e-09,6.602968889307718,81.85103475623096,51.04812919632773,9.311605392040683,1128.4162839224637,83.3970311106923,8.148965243769046,38.95187080367227,9.311605392040683,0.0007794407201902577,2.630946919048742e-08,0
2024-02-06 10:09:06.789652,0.9188767075538636,9.734350204467772,1.531461238861084,0,7.561099999999999e-05,4.501242686125731e-05,1.272155260462045e-09,0.0007833820593483445,2.6825301743350758e-08,9.52944845004091e-05,4.371892649908002e-09,5.392472511489469,81.05919928168913,59.036244451731584,9.896831908900985,7739.965307432816,84.60752748851054,8.940800718310877,30.963755548268413,9.896831908900985,0.0007904395032239924,2.7208980833005452e-08,0
2024-02-06 10:09:06.864631,-0.0430723465979099,10.643654823303224,1.5960696935653689,0,7.4979e-05,4.473567268319523e-05,1.2437948610059985e-09,0.000776942609759569,2.6332239147912666e-08,9.430618472576236e-05,4.3119788384325325e-09,-0.23186116455326894,81.47175369363501,91.5458377874827,10.762745081594439,11548.742617178854,90.23186116455328,8.528246306365006,-1.5458377874827038,10.762745081594439,0.0007839226720461384,2.671192628213509e-08,0
2024-02-06 10:09:06.939461,0.8877689242362976,9.708027839660645,1.0528795719146729,0,7.483e-05,4.467274278816117e-05,1.2371339340533825e-09,0.0007754264094011782,2.621658765598519e-08,9.41088380054841e-05,4.297941919239054e-09,5.2249882964635646,83.8102065604028,49.863021691738524,9.805227870448551,-12795.900189040327,84.77501170353645,6.189793439597211,40.13697830826148,9.805227870448551,0.0007823926403895702,2.6595343077988177e-08,0
2024-02-06 10:09:07.014062,0.7370156645774841,9.076300621032717,0.7872667908668518,0,7.4601e-05,4.448670495274199e-05,1.226925177287049e-09,0.0007732756037924287,2.603926127547452e-08,9.389814124694562e-05,4.276415120114651e-09,4.642358179655986,85.04264439241435,46.88819012180048,9.140142999603084,-8915.22728710697,85.35764182034401,4.957355607585665,43.11180987819953,9.140142999603084,0.0007802250234821546,2.6416589474090573e-08,0
2024-02-06 10:09:07.089259,0.2177546322345733,11.531424522399902,1.3496001958847046,0,7.5197e-05,4.4771226501191984e-05,1.2535240408603216e-09,0.0007794167058851717,2.650196358375845e-08,9.453492760899759e-05,4.332568174633723e-09,1.0818211315827502,83.32465761073803,80.8344594163748,11.612174184208463,32874.0665798553,88.91817886841726,6.675342389261969,9.165540583625198,11.612174184208463,0.0007864042959402954,2.688301588928822e-08,0
2024-02-06 10:09:07.163887,-0.2871489822864532,9.116979598999023,1.1342384815216064,0,7.4628e-05,4.4790969193781745e-05,1.2280435961851015e-09,0.0007735422349126337,2.6060146765101475e-08,9.382827550527549e-05,4.278978843347712e-09,-1.8039952325902828,82.90830114162489,104.20676609985175,9.191750022686485,-32433.190779894656,91.80399523259028,7.091698858375107,-14.206766099851752,9.191750022686485,0.000780498280202618,2.6437643624850104e-08,0
2024-02-06 10:09:07.239600,-0.6030128598213196,9.095443725585938,0.93323415517807,0,7.5713e-05,4.430805639443828e-05,1.2763798175667106e-09,0.000783422474566221,2.690480011999375e-08,9.494987941068506e-05,4.38139099238962e-09,-3.793064382891227,84.14169155601874,122.8686798468474,9.163058826767479,-378.94675840352,93.79306438289123,5.858308443981259,-32.868679846847385,9.163058826767479,0.0007903982901784503,2.7289082101890126e-08,0
2024-02-06 10:09:07.329064,-1.0361292362213137,9.796566009521484,1.1270596981048584,0,8.9464e-05,3.303813491309716e-05,1.8081735559016705e-09,0.0009133144874999521,3.857071510267972e-08,0.00010911542979893184,5.784442025860341e-09,-6.03741637854573,83.43717952163018,132.59296737379043,9.915469375483768,8410.204648979361,96.03741637854573,6.562820478369827,-42.59296737379044,9.915469375483768,0.0009204026556111416,3.904394094723132e-08,0
2024-02-06 10:09:07.404613,-1.1868823766708374,9.243803977966309,0.8303391337394714,0,7.5549e-05,4.8504738209794286e-05,1.2408390161491535e-09,0.0007808411133120058,2.6783627510030533e-08,9.549682742637493e-05,4.36085224621527e-09,-7.316609562013343,84.8670929989888,145.02348652511333,9.35660541201438,-7397.370758969521,97.31660956201334,5.132907001011207,-55.02348652511333,9.35660541201438,0.0007881530295035579,2.7164672211778724e-08,0
2024-02-06 10:09:07.479158,-0.6101915836334229,9.8085298538208,1.131845474243164,0,7.4545e-05,4.940686933786703e-05,1.1916873891602272e-09,0.0007712768417284487,2.600446429660022e-08,9.451181075316764e-05,4.265467909849139e-09,-3.559800069279604,83.41752482480527,118.32964388217209,9.89245499558101,7188.269951930114,93.5598000692796,6.5824751751947455,-28.32964388217209,9.89245499558101,0.0007786151088286317,2.6378902529798164e-08,0
2024-02-06 10:09:07.554603,0.5144752264022827,8.801115989685059,1.012200117111206,0,7.5445e-05,4.9363796977113016e-05,1.236134189001968e-09,0.0007796511823580263,2.670238190743913e-08,9.547663126927709e-05,4.350962708759239e-09,3.3454567112283518,83.43934241807304,63.05694303606897,8.874056372344702,-13498.556872374687,86.65454328877165,6.560657581926964,26.943056963931035,8.874056372344702,0.0007870251188639378,2.708276396081031e-08,0
2024-02-06 10:09:07.629180,1.0672370195388794,9.437629699707031,0.3517574965953827,0,7.4577e-05,4.8677333862374556e-05,1.1935843382176307e-09,0.0007717355667288302,2.602908005833544e-08,9.488467366492844e-05,4.268345902417794e-09,6.451779783715758,87.86547091633311,18.24203464412508,9.504292848028069,8450.815609147143,83.54822021628425,2.1345290836668926,71.75796535587492,9.504292848028069,0.0007790689116392194,2.640371998409241e-08,0
2024-02-06 10:09:07.704434,1.8712540864944456,10.33975601196289,0.5001177787780762,0,7.5254e-05,4.9672013101766825e-05,1.2268755921649922e-09,0.0007784302117922303,2.6553811174364816e-08,9.517303344564235e-05,4.332680436274722e-09,10.258164554660349,87.2308511560681,14.963334249792887,10.519613302578893,13491.913447136692,79.74183544533966,2.769148843931908,75.03666575020712,10.519613302578893,0.0007857981991654881,2.6932920958658563e-08,0
2024-02-06 10:09:07.779190,1.986113667488098,10.698692321777344,0.7011220455169678,0,7.4756e-05,4.871152853102518e-05,1.2023780902984272e-09,0.000773191638157129,2.616745733372743e-08,9.487392472939288e-05,4.285358743689138e-09,10.516713519834253,86.2505721599697,19.443645393285067,10.90404681845004,5142.51051248256,79.48328648016576,3.749427840030301,70.55635460671493,10.90404681845004,0.0007805121292596882,2.654328231298059e-08,0
2024-02-06 10:09:07.854571,1.4524952173233032,9.387378692626951,0.569512128829956,0,7.5381e-05,4.978609380752875e-05,1.2331585972792254e-09,0.0007794685353491304,2.6652663637948137e-08,9.52709979088763e-05,4.344779032013598e-09,8.795542670043906,86.52824315668022,21.409761181913254,9.516142345510495,-18411.860720069304,81.2044573299561,3.4717568433197905,68.59023881808675,9.516142345510495,0.0007868458653246415,2.7032614819152653e-08,0
2024-02-06 10:09:07.929587,1.5984625816345217,9.514202117919922,0.5719050168991089,0,7.5016e-05,4.922929400921895e-05,1.215088289002669e-09,0.0007760189968512056,2.6368787163321575e-08,9.506268927978075e-05,4.310043134101668e-09,9.537084542194417,86.56005178247008,19.68641832838035,9.664481357727997,1977.4316441492704,80.4629154578056,3.4399482175299143,70.31358167161966,9.664481357727997,0.000783368318069924,2.674632400597213e-08,0
2024-02-06 10:09:08.004375,1.8257888555526731,9.629061698913574,0.588655412197113,0,7.478799999999999e-05,4.8838929345379585e-05,1.2039085115402442e-09,0.0007738366647760865,2.6192103617896053e-08,9.493038539086377e-05,4.288383923589213e-09,10.736527798888146,86.50167903003862,17.869920788901197,9.818291569354297,2056.616190114731,79.26347220111187,3.498320969961385,72.1300792110988,9.818291569354297,0.0007811659252949005,2.6568137388813333e-08,0
2024-02-06 10:09:08.094582,1.897576093673706,9.79417324066162,1.1964540481567385,0,9.0207e-05,7.754421142144037e-05,2.1782593352820433e-09,0.0009235800945427415,3.9278338123864564e-08,0.0001086926867754618,5.858215998455501e-09,10.964943119666232,83.03526830442026,32.232129593321865,10.047792135027711,2544.1547293825724,79.03505688033377,6.964731695579746,57.767870406678135,10.047792135027711,0.0009331813306742807,3.9772494945488847e-08,0
2024-02-06 10:09:08.169632,1.876039981842041,8.882474899291992,0.8997334241867065,0,7.505000000000001e-05,4.89458619931443e-05,1.219654313909614e-09,0.0007820391166141031,2.6352302932112424e-08,9.280673001630701e-05,4.331152668299082e-09,11.92599253471895,84.21606063864834,25.621995038503556,9.12290559989639,-12323.604731929663,78.07400746528106,5.783939361351664,64.37800496149644,9.12290559989639,0.0007890462384785435,2.67336924106524e-08,0
2024-02-06 10:09:08.244604,1.9908995628356931,9.803744316101074,0.8734114766120911,0,7.4972e-05,4.879505135090185e-05,1.2158424182891957e-09,0.0007813103540647027,2.6291332302755943e-08,9.273757736517585e-05,4.323916440311204e-09,11.47926355010807,84.90898365477706,23.687153989082756,10.041908747457386,12257.951602744975,78.52073644989194,5.091016345222935,66.31284601091724,10.041908747457386,0.000788306466204997,2.6672245507696627e-08,0
2024-02-06 10:09:08.319367,1.777930736541748,9.442415237426758,1.043307900428772,0,7.4763e-05,4.840120858461692e-05,1.2056854091259342e-09,0.0007792991303913591,2.6128248611630286e-08,9.253728019027509e-05,4.30455521769666e-09,10.663483080522887,83.69487113945935,30.404845684486826,9.664819428992246,-5043.795974815621,79.33651691947712,6.305128860540653,59.59515431551318,9.664819428992246,0.0007862651968936395,2.6507890305324917e-08,0
2024-02-06 10:09:08.394593,1.6152129173278809,9.260554313659668,1.0289504528045654,0,7.5226e-05,4.9186721340487735e-05,1.2282770149035959e-09,0.0007836288678424356,2.6490066443221407e-08,9.30170079990486e-05,4.347511035412488e-09,9.893920403397974,83.6598084159929,32.49864598904225,9.456506648803789,-2769.1593357144766,80.10607959660203,6.340191584007094,57.50135401095775,9.456506648803789,0.0007906615583480324,2.6872534990109487e-08,0
2024-02-06 10:09:08.469596,1.2108114957809448,9.822887420654297,1.0959519147872925,0,7.5003e-05,4.88716196184261e-05,1.2173435098866769e-09,0.0007815010640890596,2.6315554455811043e-08,9.27800813850621e-05,4.326794659946159e-09,7.02707809538578,83.63376656787597,42.14945254007323,9.957725260153026,6682.647512089351,82.97292190461422,6.366233432124047,47.85054745992677,9.957725260153026,0.0007885052262846957,2.66966567863311e-08,0
2024-02-06 10:09:08.544564,-0.6125844717025757,10.031070709228516,1.0624512434005735,0,7.4968e-05,4.886115064550473e-05,1.2156331864070583e-09,0.0007811536198217867,2.6288207998842606e-08,9.274230932979382e-05,4.32354801810865e-09,-3.49463893243176,83.95399936042017,119.96674069702098,10.105762809066757,1974.6765141624544,93.49463893243176,6.046000639579828,-29.966740697020974,10.105762809066757,0.0007881557750488836,2.6669096559486182e-08,0
2024-02-06 10:09:08.618819,-1.5386399030685425,9.449594497680664,0.8997334241867065,0,7.4255e-05,4.962806213511064e-05,1.1805217820507688e-09,0.0007742087626755235,2.5733721309482312e-08,9.204279049579896e-05,4.257672130020825e-09,-9.24808454505634,84.56103771831235,149.68265753429958,9.616224267170052,-6592.667724687965,99.24808454505634,5.438962281687659,-59.68265753429957,9.616224267170052,0.000781238777863148,2.6110262658172484e-08,0
2024-02-06 10:09:08.694255,-1.514710783958435,10.186610221862791,0.5001177787780762,0,7.5436e-05,4.782505855442121e-05,1.2380678498179373e-09,0.0007858039415624139,2.6654908811334813e-08,9.286940263114966e-05,4.366862780062288e-09,-8.457696294050727,87.18928595876028,161.72813169661686,10.310746547357732,9206.775017069836,98.45769629405073,2.8107140412397293,-71.72813169661686,10.310746547357732,0.0007927167191032531,2.703861065737699e-08,0
2024-02-06 10:09:08.769640,-1.3998512029647827,9.863567352294922,0.9260554313659668,0,7.5385e-05,4.789937988508776e-05,1.2356268766377298e-09,0.0007852926620342728,2.6614845847943095e-08,9.283303521429098e-05,4.362127367897229e-09,-8.077553168595438,84.63642453692805,146.5138306101298,10.00535471463469,-4051.0954795124057,98.07755316859544,5.363575463071952,-56.51383061012976,10.00535471463469,0.0007922101287318588,2.6998239728949022e-08,0
2024-02-06 10:09:08.859599,-1.4907817840576172,9.39934253692627,0.7226582169532776,0,8.9959e-05,2.683533730865553e-05,1.7802187608285371e-09,0.0009256614863970276,3.908256872756198e-08,0.00010484721156959331,5.802623326211394e-09,-9.012321881955327,85.60352548210295,154.13815776349531,9.544228902990522,-5125.955286788069,99.01232188195533,4.396474517897042,-64.13815776349531,9.544228902990522,0.0009319668773626791,3.955106565753828e-08,0
2024-02-06 10:09:08.934197,-1.2132043838500977,9.320377349853516,0.9188767075538636,0,7.459799999999999e-05,4.760330307127074e-05,1.2084927833905133e-09,0.0007818846778066155,2.5967760413395897e-08,9.223940258191622e-05,4.288899586220724e-09,-7.416314203560462,84.36952262982906,142.8598408136936,9.443814548387774,-1346.0730127181405,97.41631420356046,5.630477370170938,-52.85984081369361,9.443814548387774,0.0007887444651094034,2.6347290095106978e-08,0
2024-02-06 10:09:09.009046,-0.8518753051757812,9.169623374938965,0.6580497026443481,0,7.4849e-05,4.734413557029799e-05,1.2204086869400305e-09,0.000784205172897577,2.6164304689659278e-08,9.24373068463961e-05,4.312076513253978e-09,-5.307651271853911,85.89525730289643,142.31492347617365,9.23258976587532,-2822.0120844961784,95.30765127185391,4.104742697103579,-52.31492347617365,9.23258976587532,0.0007910523851612054,2.654532427966631e-08,0
2024-02-06 10:09:09.084591,-1.485995888710022,8.875295639038086,1.847325086593628,0,7.5545e-05,4.653055639482574e-05,1.2530770797438933e-09,0.000790484804714441,2.6712296801868257e-08,9.33091772730509e-05,4.376716289727545e-09,-9.504902940054091,78.24219761758238,128.8133419499853,9.186493696571599,-610.1802806766889,99.5049029400541,11.75780238241763,-38.81334194998531,9.186493696571599,0.0007973317513596291,2.7097465713229476e-08,0
2024-02-06 10:09:09.159409,-1.3687434196472168,9.600347518920898,2.060293912887573,0,7.4818e-05,4.756825413341359e-05,1.2188721621168785e-09,0.0007837689084265229,2.614005557714152e-08,9.188875776673949e-05,4.309396840340582e-09,-8.114106618730581,77.88768882091472,123.59782786737314,9.913876236889372,9722.025987299488,98.11410661873059,12.112311179085287,-33.597827867373134,9.913876236889372,0.0007905694051892716,2.6520917330499117e-08,0
2024-02-06 10:09:09.234349,-0.8877689242362976,9.899460792541504,2.591519355773926,0,7.494000000000001e-05,4.7430606880436684e-05,1.2246670926387239e-09,0.0007849583967335222,2.6235747942756292e-08,9.217251837612787e-05,4.320624578185297e-09,-5.124492192683007,75.33008794984596,108.90976602366668,10.271486271093245,4771.951350465342,95.12449219268302,14.669912050154036,-18.909766023666673,10.271486271093245,0.0007917734020635612,2.661732661912635e-08,0
2024-02-06 10:09:09.309242,-1.4142086505889893,9.48788070678711,1.9215052127838133,0,7.4893e-05,4.748470335344509e-05,1.2224365828482273e-09,0.000784502794208288,2.6198865604769155e-08,9.206646229876674e-05,4.3162949621394364e-09,-8.477761451104326,78.5511891959239,126.35269721056655,9.783253482169373,-6519.071060364413,98.47776145110433,11.448810804076114,-36.35269721056653,9.783253482169373,0.0007913126213156127,2.6580167651390615e-08,0
2024-02-06 10:09:09.384631,-0.7250511646270752,9.188767433166504,1.9908995628356931,0,7.538899999999999e-05,4.6954166919271514e-05,1.2458574226758606e-09,0.0007891346029469964,2.6589127679263657e-08,9.303673868312036e-05,4.3622005559829435e-09,-4.511647034215864,77.77487760826,110.0107482941996,9.429890094876386,-4687.200881998527,94.51164703421587,12.22512239174001,-20.010748294199594,9.429890094876386,0.0007959861494424308,2.6973369555034076e-08,0
2024-02-06 10:09:09.459593,-0.308685153722763,9.105015754699709,1.7755378484725952,0,7.4962e-05,4.7174869623239195e-05,1.225760873374035e-09,0.000785228880236387,2.6253001075604014e-08,9.223260429580607e-05,4.3226455512569435e-09,-1.9417412816064266,78.96542861805497,99.86254823616824,9.281655728845875,-1977.4601268710974,91.94174128160644,11.034571381945034,-9.86254823616824,9.281655728845875,0.0007920332795889618,2.6634710806692864e-08,0
2024-02-06 10:09:09.534604,0.0263219885528087,10.100464820861816,2.433587551116944,0,7.501099999999999e-05,4.7167951725692536e-05,1.2280722724970832e-09,0.0007856994145104882,2.62914888188253e-08,9.233572786809598e-05,4.327167475394958e-09,0.1493134687502996,76.45345170547995,89.38030581877658,10.389534677429006,14769.553113318469,89.8506865312497,13.546548294520058,0.6196941812234332,10.389534677429006,0.0007925113704377069,2.6673487289385464e-08,0
2024-02-06 10:09:09.624448,0.3924369215965271,9.81810188293457,1.098344802856445,0,8.984399999999999e-05,5.0273677182815084e-05,1.9507481132970296e-09,0.0009334254644691941,3.904137848377811e-08,0.00011853030417133962,5.891055402015431e-09,2.2889369663767654,83.61689701664721,70.33826877932744,9.887137736831487,-5591.88082228662,87.71106303362325,6.3831029833527975,19.661731220672575,9.887137736831487,0.0009422632187154304,3.9531496124795976e-08,0
2024-02-06 10:09:09.699620,0.0191432647407054,9.911425590515137,1.387886643409729,0,7.5172e-05,4.725432493584515e-05,1.2352826897545388e-09,0.0007886896509239673,2.640794199725389e-08,0.00010029131028153098,4.285780038389175e-09,0.11066288112111809,82.0287620766254,89.20976346893947,10.00814433528306,1609.7296659869664,89.88933711887888,7.971237923374608,0.7902365310605388,10.00814433528306,0.0007964437730422017,2.6781957254677787e-08,0
2024-02-06 10:09:09.774437,-0.0095716323703527,9.535738945007324,1.012200117111206,0,7.4817e-05,4.725262597109941e-05,1.2185077059685559e-09,0.000785237779218912,2.6128569878403527e-08,9.98652948815385e-05,4.250252240972729e-09,-0.05751142694355805,83.94085357898616,90.54178791615243,9.589314778468562,-5598.053341012033,90.05751142694356,6.059146421013847,-0.5417879161524184,9.589314778468562,0.0007929717887135646,2.6500029604361097e-08,0
2024-02-06 10:09:09.848848,0.0502510704100132,9.428057670593262,0.7705163955688477,0,7.4411e-05,4.724436804517736e-05,1.1993248161832519e-09,0.0007813881285059451,2.5810544819135383e-08,9.950340342946446e-05,4.209780395215596e-09,0.3053807143911066,85.3278350005134,86.26860291688818,9.459624312093489,-1742.8937438695052,89.6946192856089,4.672164999486596,3.7313970831118195,9.459624312093489,0.0007891136578314041,2.617909194092207e-08,0
2024-02-06 10:09:09.923820,0.3062922358512878,9.44480800628662,0.8183745741844177,0,7.4972e-05,4.734437844258365e-05,1.2258569595730688e-09,0.0007866819673283099,2.625038848101689e-08,9.994908734648026e-05,4.265726818878248e-09,1.8574336486010907,85.04779895334467,69.480682989013,9.485143654844144,340.384980401423,88.14256635139891,4.9522010466553255,20.519317010987,9.485143654844144,0.0007944179176926016,2.662296087934126e-08,0
2024-02-06 10:09:09.999545,0.6580497026443481,9.66256332397461,0.9451987147331238,0,7.5725e-05,4.7707453182427256e-05,1.2616439741798852e-09,0.0007938758926341532,2.6845468515292755e-08,0.0001006130726897577,4.341238472131891e-09,3.895999566243058,84.41306172137392,55.15426802801261,9.730958843367015,3246.1563357262535,86.10400043375695,5.586938278626087,34.84573197198739,9.730958843367015,0.0008016470073485595,2.722346922776517e-08,0
2024-02-06 10:09:10.074405,0.5719050168991089,10.179430961608888,1.1749178171157837,0,7.486e-05,4.717549776622471e-05,1.2206070978945932e-09,0.0007852942301056384,2.6162477437207795e-08,9.969612228973306e-05,4.2546047453032615e-09,3.215634772701844,83.416010744607,64.04495414625906,10.262958731647135,7106.597492387396,86.78436522729815,6.583989255393011,25.955045853740938,10.262958731647135,0.0007930018109855159,2.6534256516409022e-08,0
2024-02-06 10:09:10.149501,0.7561589479446411,9.274911880493164,1.0528795719146729,0,7.5096e-05,4.733220931407628e-05,1.2317590073300688e-09,0.0007875898425610064,2.6348077757782462e-08,9.995900238163865e-05,4.278164050014484e-09,4.660864598915502,83.52355992331921,54.31478037679598,9.365058576347785,-11956.697497860741,85.33913540108449,6.476440076680795,35.68521962320403,9.365058576347785,0.0007953174839653375,2.672154784852715e-08,0
2024-02-06 10:09:10.224396,0.9260554313659668,9.56684684753418,1.0241646766662598,0,7.489500000000001e-05,4.7163146768955566e-05,1.2222622240437244e-09,0.0007856962458088398,2.6189962505901296e-08,9.975025943465628e-05,4.2580932692019465e-09,5.5289139908917875,83.88955675543588,47.87993689813415,9.66597385425121,4017.8286655107086,84.4710860091082,6.110443244564128,42.12006310186586,9.66597385425121,0.000793405991500276,2.6561992005383613e-08,0
2024-02-06 10:09:10.299308,0.8758043646812439,9.973641395568848,1.1222739219665527,0,7.4912e-05,4.7178462577221964e-05,1.2230641277231667e-09,0.0007858623399589061,2.620332075388032e-08,9.976850416274466e-05,4.259789178692524e-09,5.018378682195447,83.57985594182082,52.032100358125284,10.074723555935687,5456.398196343414,84.98162131780455,6.420144058179169,37.96789964187472,10.074723555935687,0.0007935736759241131,2.6575471928794873e-08,0
2024-02-06 10:09:10.389301,0.7250511646270752,9.46155834197998,1.1964540481567385,0,8.9993e-05,5.924971369597134e-05,2.0255857909111807e-09,0.000932413463579893,3.915997945046463e-08,0.00011725287242145933,5.8962388688257146e-09,4.382083623138571,82.79295917031854,58.78413654135676,9.564428249475693,-5670.388879801701,85.61791637686143,7.207040829681473,31.215863458643245,9.564428249475693,0.0009416228712861588,3.965315398748761e-08,0
2024-02-06 10:09:10.479242,0.8494823575019836,9.708027839660645,1.3376356363296509,0,8.9941e-05,5.9208775824395985e-05,2.022505870183651e-09,0.0009319150543391703,3.911150690899873e-08,0.00011718698608966268,5.890143432504425e-09,5.000819849533595,82.15481080932314,57.58189692144345,9.83649805097893,3024.9808374738686,84.99918015046642,7.845189190676876,32.41810307855654,9.83649805097893,0.0009411185564780778,3.960422063799587e-08,0
2024-02-06 10:09:10.539436,0.8566610813140869,9.696063995361328,1.4213874340057373,0,6.0194e-05,3.3832451387165165e-05,6.386571772524962e-10,0.0006433082944309709,1.5682422431066035e-08,7.615065645302929e-05,3.0145360061456957e-09,5.049053469792833,81.66016906992829,58.922899798658946,9.837065997945217,9.435275381050024,84.95094653020718,8.339830930071715,31.077100201341054,9.837065997945217,0.0006486826026099182,1.598229281513789e-08,0
2024-02-06 10:09:10.614081,0.7226582169532776,9.47113037109375,1.4213874340057373,0,7.4645e-05,4.5243822976796005e-05,1.2100227976692978e-09,0.0007818008573257921,2.5979548607084527e-08,9.669112626184619e-05,4.263404307152028e-09,4.363279965508358,81.46498718213311,63.05042046824779,9.604420213752308,-3116.696151020289,85.63672003449163,8.535012817866889,26.94957953175221,9.604420213752308,0.0007890556114309583,2.6354842387785013e-08,0
2024-02-06 10:09:10.689555,0.6748000979423523,9.499845504760742,1.7516087293624878,0,7.5474e-05,4.582306944832025e-05,1.2477700245795087e-09,0.0007896643268263338,2.6630920925915583e-08,9.800633317156233e-05,4.344106404087176e-09,4.063052053359201,79.55297474593553,68.93102467842728,9.683519655955925,1048.035644110781,85.9369479466408,10.44702525406447,21.068975321572722,9.683519655955925,0.0007970412436615109,2.7011740777792143e-08,0
2024-02-06 10:09:10.764585,0.4737958014011383,9.29644775390625,1.4596738815307615,0,7.503e-05,4.556808115866599e-05,1.2274811891447578e-09,0.0007854915497229098,2.6281236321321652e-08,9.729342843194403e-05,4.300749857011198e-09,2.917569495080661,81.07660646698999,72.01707890630966,9.422264650441369,-3482.0072706191677,87.08243050491934,8.92339353301001,17.98292109369034,9.422264650441369,0.0007928047905522665,2.6659079916220712e-08,0
2024-02-06 10:09:10.839617,0.4785816073417663,9.839637756347656,1.3519930839538574,0,7.5032e-05,4.556903353607473e-05,1.2275723262594522e-09,0.0007855106858084199,2.6282807323557175e-08,9.72962400989095e-05,4.300944446679728e-09,2.7845653274328113,82.17639334394482,70.50693866492287,9.943610854719086,6948.318107976833,87.2154346725672,7.823606656055171,19.49306133507714,9.943610854719086,0.0007928241499058987,2.6660664240728397e-08,0
2024-02-06 10:09:10.914514,0.2536482512950897,9.167230606079102,1.139024257659912,0,7.489700000000001e-05,4.551960802061675e-05,1.2214238429543763e-09,0.0007842277221939563,2.6176849981017027e-08,9.71280964283506e-05,4.28782080396414e-09,1.5849134723205314,82.9173237924045,77.4457052182056,9.241202880575461,-9378.31921363506,88.41508652767948,7.082676207595495,12.5542947817944,9.241202880575461,0.000791529545934747,2.6553808735842703e-08,0
2024-02-06 10:09:10.989581,-0.1172524988651275,10.004748344421388,0.7346227765083313,0,7.506699999999999e-05,4.553120165957329e-05,1.2291631617771915e-09,0.0007858573404047486,2.63103072113379e-08,9.728735642625488e-05,4.3043461174567795e-09,-0.6714577456973166,85.80045578286405,99.06843913908844,10.032368025917782,10539.453359563067,90.67145774569732,4.199544217135957,-9.068439139088431,10.032368025917782,0.0007931643458407588,2.668839641364978e-08,0
2024-02-06 10:09:11.064307,-0.2823631465435028,10.081321716308594,0.7561589479446411,0,7.4726e-05,4.559933612711546e-05,1.2136254050845616e-09,0.0007824326654593943,2.6042913765338074e-08,9.703317814223565e-05,4.271214466312853e-09,-1.604351943548227,85.71050859882415,110.47652269675778,10.113582592177607,1086.8314409954476,91.60435194354822,4.289491401175854,-20.476522696757776,10.113582592177607,0.0007897440174471149,2.6418734205671972e-08,0
2024-02-06 10:09:11.154419,-0.2560411691665649,9.143301963806152,0.4714028835296631,0,9.0112e-05,4.1457391726357914e-05,1.8833528124613318e-09,0.000930327695430517,3.921917922166416e-08,0.00010647681131176747,5.836816815182498e-09,-1.6040425653212418,87.0486042933867,118.50847454599425,9.159025524598658,-10593.007230767822,91.60404256532125,2.9513957066133014,-28.508474545994233,9.159025524598658,0.0009373183277632691,3.9695836899745754e-08,0
2024-02-06 10:09:11.229566,-0.184253916144371,9.002120018005371,0.3756865561008453,0,7.5147e-05,4.4751899702196986e-05,1.2382917893471702e-09,0.0007945545754516124,2.6312747629788634e-08,0.0001001384645797322,4.290818013324353e-09,-1.1725568959655817,87.61025507615574,116.12545025346499,9.011839696345163,-1958.6387780416326,91.17255689596558,2.3897449238442636,-26.125450253464983,9.011839696345163,0.0008020894077261174,2.6689045947878704e-08,0
2024-02-06 10:09:11.303818,-0.2010042816400528,9.066728591918944,-0.06460852175951,0,7.425199999999999e-05,4.492430274570552e-05,1.1981616887517334e-09,0.0007864687656986712,2.5605239684623872e-08,9.999925715936444e-05,4.201256382846106e-09,-1.2700072230069852,90.40827658231798,-162.18111039801417,9.069186531428388,772.327143824068,91.27000722300698,-0.40827658231797176,-107.81888960198583,9.069186531428388,0.0007940725179914009,2.597526604163728e-08,0
2024-02-06 10:09:11.379408,-0.284756064414978,9.186373710632324,0.0622156113386154,0,7.559e-05,4.4599329074194703e-05,1.258052998439247e-09,0.000798680091139078,2.6665704269848332e-08,9.999765630229286e-05,4.3350543179519554e-09,-1.775466430481445,89.61196468144458,167.67527244562496,9.19099661352957,1611.4576280087672,91.77546643048144,0.3880353185554371,-77.67527244562494,9.19099661352957,0.0008061504322406245,2.7045058282308865e-08,0
2024-02-06 10:09:11.454536,-0.1411815732717514,9.294054985046388,-0.205790102481842,0,7.5128e-05,4.4697720668500335e-05,1.2374253799486846e-09,0.0007944111121103763,2.629770020189771e-08,0.00010003082200974695,4.288847739461874e-09,-0.8702860269139734,91.26844289176347,-124.45193294173043,9.297405007203709,1416.3613256593903,90.87028602691397,-1.2684428917634691,-145.5480670582696,9.297405007203709,0.0008019308365621999,2.6673853722552337e-08,0
2024-02-06 10:09:11.529370,-0.5599405169487,9.167230606079102,-0.6867645978927612,0,7.4834e-05,4.480078561576274e-05,1.2242690995248977e-09,0.0007916973031284808,2.6064542264857592e-08,0.00010016202755070202,4.259419390576488e-09,-3.4953216392030564,94.2843198268539,-129.19143041091266,9.209956350627998,-1168.5685193322731,93.49532163920306,-4.284319826853907,-140.80856958908734,9.209956350627998,0.0007992647633517737,2.6438643154470283e-08,0
2024-02-06 10:09:11.604403,-0.7992312908172607,8.523538589477539,-1.416601538658142,0,7.5033e-05,4.466554802089003e-05,1.2331709997217448e-09,0.0007934575346634388,2.622226517121789e-08,9.99527426201152e-05,4.279330810208484e-09,-5.356821554534337,99.43623568546778,-119.43122193511505,8.677340644567481,-7098.41944291867,95.35682155453433,-9.436235685467768,-150.56877806488495,8.677340644567481,0.0008009746695442194,2.6597755048263397e-08,0
2024-02-06 10:09:11.679604,-0.2368979007005691,8.657541275024414,-2.1320810317993164,0,7.5201e-05,4.457851316880253e-05,1.240667500861679e-09,0.0007949007453720569,2.6355687266740873e-08,9.965465328419678e-05,4.2960978314644465e-09,-1.5674038790464986,103.83485297903052,-96.34019196566437,8.919355978447442,3218.2462185338018,91.5674038790465,-13.834852979030513,-173.65980803433564,8.919355978447442,0.0008023624422607194,2.6732339286479493e-08,0
2024-02-06 10:09:11.754139,-0.3062922358512878,8.186138153076172,-3.785580635070801,0,7.4535e-05,4.47593954842743e-05,1.2109179772802046e-09,0.0007892918001224994,2.582815114909119e-08,0.00010162523461926452,4.2290716287925944e-09,-2.1427771645808025,114.81761074428536,-94.62573872263258,9.024261384712611,1407.4650334093985,92.1427771645808,-24.81761074428535,-175.37426127736742,9.024261384712611,0.0007970650146231195,2.6200090858038246e-08,0
2024-02-06 10:09:11.828997,-0.6293348073959351,7.654912948608398,-3.1586387157440186,1,7.4858e-05,4.4608291716789875e-05,1.225350858763176e-09,0.0007918501298754214,2.6083505570785845e-08,0.00010050374319410796,4.261715458709453e-09,-4.699898900397995,112.42246127732575,-101.26818948177083,8.304863219052415,-9610.170798848443,94.699898900398,-22.42246127732574,-168.73181051822917,8.304863219052415,0.0007994482661621321,2.6457758148401218e-08,0
2024-02-06 10:09:11.919560,-1.2610626220703125,6.618783950805664,-3.6085054874420166,1,9.056300000000001e-05,2.9763945901906152e-05,1.809358854663987e-09,0.0009039343347780704,3.93996530794774e-08,4.736474333858958e-05,5.422852749207462e-09,-10.78715363669832,118.59884776720516,-109.26296361702397,7.6432906380121794,-7305.108941181664,100.78715363669832,-28.598847767205147,-160.73703638297604,7.6432906380121794,0.0009056636202132969,3.981223146456012e-08,0
2024-02-06 10:09:11.994552,-0.5336185097694397,7.202653408050537,-4.03683614730835,1,7.4992e-05,4.373643585384455e-05,1.2371216325045898e-09,0.0007963275342206955,2.6162264298387504e-08,0.00010688755063593857,4.221921514468773e-09,-4.237095968069181,119.26911047715198,-97.53011832769793,8.273996066634664,8410.302813933286,94.23709596806918,-29.26911047715197,-172.46988167230208,8.273996066634664,0.0008046585400405321,2.6529590355424383e-08,0
2024-02-06 10:09:12.069533,-0.5312256217002869,7.769772529602051,-4.484309673309326,1,7.4981e-05,4.374229249656763e-05,1.2366404994986627e-09,0.0007962451858780383,2.615350514842696e-08,0.00010693441693795195,4.220745493647117e-09,-3.9112717873599316,119.99131287775123,-96.75595483839551,8.986690106432128,9504.995129398965,93.91127178735994,-29.99131287775122,-173.2440451616045,8.986690106432128,0.0008045835902581327,2.652074289675797e-08,0
2024-02-06 10:09:12.144569,-2.8834543228149414,8.193317413330078,-4.197160720825195,1,7.5036e-05,4.3648388798093465e-05,1.2390437432342659e-09,0.0007966841708514689,2.619731070573702e-08,0.00010669567650211326,4.226620321216719e-09,-19.388376219837273,117.12453576833083,-124.48911075086073,9.64680865280202,8797.357886479718,109.38837621983727,-27.124535768330837,-145.5108892491393,9.64680865280202,0.0008049812527718925,2.6564988931868458e-08,0
2024-02-06 10:09:12.219566,0.8111958503723145,8.820259094238281,-4.539346694946289,1,7.4997e-05,4.36887978383061e-05,1.2373406680948559e-09,0.0007963524061095713,2.6166246492486277e-08,0.00010686603839672082,4.222455867776191e-09,5.254688727253975,117.23261720885769,-79.86801101872133,9.952923068831295,4081.688814609573,84.74531127274602,-27.232617208857693,169.86801101872132,9.952923068831295,0.0008046777093567767,2.6533612663747647e-08,0
2024-02-06 10:09:12.294519,-2.895418882369995,10.466580390930176,-2.768594741821289,1,7.495300000000001e-05,4.373465074501004e-05,1.2354173522260235e-09,0.0007959280956408977,2.6131216321447776e-08,0.00010702681310832966,4.2177502250430815e-09,-15.463288814498217,104.81639819658594,-136.28270771398695,11.207045660147427,16732.120012756426,105.46328881449823,-14.816398196585942,-133.71729228601305,11.207045660147427,0.0008042816620006073,2.6498228986732884e-08,0
2024-02-06 10:09:12.369569,-2.768594741821289,10.983448028564451,-3.05574369430542,1,7.505000000000001e-05,4.3459946084236776e-05,1.2396462901722417e-09,0.0007969684220192431,2.620847180255429e-08,0.00010674433269417753,4.2281181256145024e-09,-14.147799916816512,105.547285962143,-132.1775142080012,11.731957081659656,6994.156182707914,104.14779991681651,-15.547285962142993,-137.8224857919988,11.731957081659656,0.0008052588311666084,2.6576261965035095e-08,0
2024-02-06 10:09:12.444557,-0.521653950214386,8.399106979370117,-3.548682689666748,1,7.4988e-05,4.356194379368991e-05,1.2369486115860253e-09,0.000796367562813997,2.615907838702445e-08,0.0001069490699120807,4.221493630133707e-09,-3.553976322032434,112.90440505325022,-98.36254908959289,9.132922299385806,-34659.342591799366,93.55397632203244,-22.9044050532502,-171.63745091040713,9.132922299385806,0.000804696863175475,2.6526372394193928e-08,0
2024-02-06 10:09:12.519538,1.9119335412979128,9.463951110839844,-16.984861373901367,1,7.4981e-05,4.3557077815121124e-05,1.236643695010395e-09,0.0007963050421106813,2.615350403290722e-08,0.00010702093731630307,4.220744735108409e-09,11.421327190531711,150.87348320233343,-83.5774269521936,19.537332888225897,138760.62721009445,78.57867280946829,-60.87348320233344,173.5774269521936,19.537332888225897,0.0008046442817436452,2.6520741824968784e-08,1
2024-02-06 10:09:12.594486,-9.164837837219238,4.503453254699707,-7.784130096435547,1,7.4948e-05,4.367675073600384e-05,1.2352043368393012e-09,0.0007960745799386499,2.6127229769143404e-08,0.00010742962567556368,4.217206300819042e-09,-63.831243797044515,149.94877663070125,-139.6571819178236,12.840094437270485,-89358.46788380493,153.83124379704452,-59.94877663070124,-130.34281808217642,12.840094437270485,0.0008044771717408423,2.6494201141891932e-08,0
2024-02-06 10:09:12.684535,-2.079437017440796,1.4979604482650757,-6.889182567596436,1,9.0049e-05,-4.122314655410677e-05,1.253730275214715e-09,0.0008413882541028854,3.8490892897574016e-08,-3.36122159420983e-06,5.002974785835305e-09,-54.23221873091361,167.73274804878562,-106.79596155391104,7.350427216410228,-60963.111426670555,144.23221873091362,-77.73274804878565,-163.20403844608896,7.350427216410228,0.000842404202129078,3.883491254481214e-08,0
2024-02-06 10:09:12.758769,-1.5960696935653689,2.4216229915618896,-6.176095962524414,1,7.4234e-05,-1.2159077236825503e-05,1.6758502098415123e-09,0.0008103941480524536,2.5429423552530664e-08,9.995246838272085e-05,4.239179501855154e-09,-33.388513486733025,158.59004919241303,-104.48976216290782,6.823185305873597,-7102.431642328732,123.38851348673303,-68.59004919241303,-165.51023783709218,6.823185305873597,0.000816625381856768,2.5834757575575896e-08,0
2024-02-06 10:09:12.834508,0.0191432647407054,-2.9743847846984863,-12.227760314941406,1,7.5739e-05,-1.3345714374516068e-05,1.6566578541539777e-09,0.0008099781948031183,2.6648753740529486e-08,8.610356653392776e-05,4.379186668129933e-09,179.63124706081825,-166.3284066021654,-89.91030022249399,12.584333658628365,76065.80959287511,-89.63124706081824,-103.67159339783463,179.910300222494,12.584333658628365,0.0008146512188160937,2.7056937503040534e-08,1
2024-02-06 10:09:12.909519,-1.4979604482650757,1.7635732889175415,-15.484508514404297,1,7.501099999999999e-05,-1.280742491971319e-05,1.6661775968570772e-09,0.0008104189301875826,2.605892918703286e-08,9.619083238780975e-05,4.312831506922419e-09,-40.34421979301025,173.5024240268443,-95.52555919883538,15.656438936827529,40955.39691777425,130.34421979301024,-83.5024240268443,-174.47444080116463,15.656438936827529,0.0008162080303298416,2.6465911164480324e-08,0
2024-02-06 10:09:12.984477,-0.1603248417377472,0.6054057478904724,-10.385221481323242,1,7.4958e-05,-1.276348035952812e-05,1.666855225846977e-09,0.0008103561522431072,2.6015978647348453e-08,9.687638023269646e-05,4.307715225787977e-09,-14.832704337527462,176.66372241081152,-90.88444980750181,10.404087917284954,-70070.58645564949,104.83270433752746,-86.66372241081152,-179.1155501924982,10.404087917284954,0.0008162260918128824,2.6422830313759152e-08,0
2024-02-06 10:09:13.059521,-0.49054616689682,-0.8829830884933472,-11.174880981445312,1,7.5044e-05,-1.2791467812899406e-05,1.6657563630755627e-09,0.0008103442164174613,2.6085668763200855e-08,9.594929582679742e-05,4.316006729858535e-09,-150.94539557253506,-175.48216123438556,-92.51351156825616,11.22043936866514,10878.304080008871,-119.05460442746494,-94.51783876561446,-177.48648843174385,11.22043936866514,0.0008161051636276395,2.6492730572304995e-08,0
2024-02-06 10:09:13.134538,0.8925547003746033,1.0241646766662598,-12.002826690673828,1,7.5017e-05,-1.2796894928101354e-05,1.6661018059725662e-09,0.000810342310466021,2.6063789495087935e-08,9.626219488037094e-05,4.313411874733989e-09,41.07199739219066,175.1229387166775,-85.74719625011626,12.079462560248437,11451.046983794304,48.92800260780934,-85.1229387166775,175.74719625011625,12.079462560248437,0.0008161402029151588,2.6470786540509472e-08,0
2024-02-06 10:09:13.209969,-3.55825424194336,0.27997025847435,-7.958812236785889,1,7.5431e-05,-1.3348694733206087e-05,1.6606896689126756e-09,0.0008106122663975951,2.6399327092498703e-08,9.213013562238678e-05,4.35240908714806e-09,-85.50112699854284,177.98531464939444,-114.0886343159255,8.722513904623534,-44503.56823620133,175.50112699854284,-87.98531464939443,-155.9113656840745,8.722513904623534,0.0008159401914203795,2.6807197279369925e-08,0
2024-02-06 10:09:13.284234,-1.2323477268218994,-0.4474738240242004,-7.709949970245361,1,7.4265e-05,-1.055577378541592e-05,1.6746259740590324e-09,0.0008107099209763107,2.545409625725971e-08,0.00010126502398908607,4.2396597090945706e-09,-109.95630312856917,-176.67836595768182,-99.08126083433842,7.820629276898144,-12144.140950991594,-160.04369687143085,-93.32163404231818,-170.91873916566158,7.820629276898144,0.0008170780901560969,2.5859042961327004e-08,0
2024-02-06 10:09:13.358805,2.9815635681152344,2.072258472442627,-11.59842586517334,1,7.4571e-05,-1.0288143761698034e-05,1.6714368546743238e-09,0.0008109585130275187,2.5702211527662303e-08,9.831084248626695e-05,4.2701948166653e-09,55.19976922894389,169.87000975328263,-75.58334525996698,12.15349575378394,58103.90737533083,34.80023077105611,-79.87000975328263,165.583345259967,12.15349575378394,0.0008169605727966466,2.610808193537273e-08,0
2024-02-06 10:09:13.449585,-1.0385221242904663,0.4546525478363037,-10.052606582641602,1,9.078e-05,5.459235619779792e-06,1.6323009686381474e-09,0.0008314378633913692,3.901301296034917e-08,-7.715994998704916e-05,4.441612224925211e-09,-66.35677244450363,177.41042961782622,-95.89823086135416,10.116330176860782,-22440.68712186779,156.35677244450363,-87.41042961782622,-174.10176913864584,10.116330176860782,0.000835028371863113,3.929895044213261e-08,0
2024-02-06 10:09:13.524443,-1.0074143409729004,0.4450809061527252,-9.911425590515137,1,7.4858e-05,2.1746935819741453e-05,1.4157126378081189e-09,0.0008242750853641625,2.5831882175306384e-08,8.177371014345163e-05,4.40488208032009e-09,-66.16390853355026,177.42881217719267,-95.80371020258029,9.972428886872944,-1922.3234655993722,156.16390853355028,-87.42881217719265,-174.19628979741972,9.972428886872944,0.0008286068339328795,2.6242967917773445e-08,0
2024-02-06 10:09:13.599545,-0.8877689242362976,1.6367491483688354,-9.784601211547852,1,7.5102e-05,2.1515723461385925e-05,1.4209906822404166e-09,0.0008245290686308142,2.6033036282093775e-08,7.937079487359988e-05,4.424541709932171e-09,-28.475301042619954,170.50359745408926,-95.18432171991601,9.960195896996678,-162.88500807256025,118.47530104261995,-80.50359745408927,-174.815678280084,9.960195896996678,0.000828619837109957,2.6444560157558953e-08,0
2024-02-06 10:09:13.674375,-0.5742979645729065,1.7157150506973269,-9.786993980407717,1,7.483e-05,2.1714564558263978e-05,1.4151113630697443e-09,0.0008240731334997412,2.580882638260402e-08,8.203253181970583e-05,4.402590857501881e-09,-18.506839285288777,170.05676495333736,-93.35824874042918,9.952826104169548,-98.48714188334618,108.50683928528878,-80.05676495333735,-176.64175125957084,9.952826104169548,0.0008284306778160672,2.6219856324469926e-08,0
2024-02-06 10:09:13.749553,-0.8662327527999878,2.184725046157837,-9.877924919128418,1,7.517799999999999e-05,2.14639122134411e-05,1.422624418028021e-09,0.000824751810076594,2.6095721922786295e-08,7.861083593118664e-05,4.430542803490536e-09,-21.62808279490981,167.5285210072233,-95.01166385350434,10.1536586222539,2671.4267217051856,111.62808279490982,-77.5285210072233,-174.98833614649567,10.1536586222539,0.0008287677064641964,2.6507362608145694e-08,0
2024-02-06 10:09:13.824361,-0.6436922550201416,2.670485496520996,-9.849209785461426,1,7.4808e-05,2.1743248339887813e-05,1.4146310933256555e-09,0.0008238535961261985,2.579072992263879e-08,8.22603558515356e-05,4.400781633010733e-09,-13.552030447194166,164.8297217335209,-93.73923142196446,10.225104689162405,955.0591769397029,103.55203044719417,-74.82972173352088,-176.26076857803554,10.225104689162405,0.0008282356445138429,2.6201713876274278e-08,0
2024-02-06 10:09:13.899326,-0.8973405361175537,2.297191858291626,-10.145930290222168,1,7.4965e-05,2.162227726578351e-05,1.4180352870857005e-09,0.0008242435587985513,2.5920105549300377e-08,8.069073735559453e-05,4.4135732938274926e-09,-21.336858566278043,167.24246733166245,-95.05428213299408,10.441370213032807,2884.886598684736,111.33685856627804,-77.24246733166244,-174.94571786700595,10.441370213032807,0.0008284660295932772,2.6331394284812942e-08,0
2024-02-06 10:09:13.974316,0.5790837407112122,2.2876200675964355,-10.26796817779541,1,7.499e-05,2.161829905584093e-05,1.418575794289721e-09,0.0008243008689476248,2.5940712354647204e-08,8.04355636247443e-05,4.415587372589747e-09,14.205340205277802,167.44009230175357,-86.77210292033583,10.53564018238309,1257.1005380755328,75.79465979472221,-77.44009230175357,176.7721029203358,10.53564018238309,0.0008284981311370035,2.6352045966028233e-08,0
2024-02-06 10:09:14.049338,0.4594383537769317,2.290013074874878,-9.839637756347656,1,7.5022e-05,2.1634915409352744e-05,1.4192678457211642e-09,0.0008243741110779044,2.5967091154327616e-08,8.011384192979798e-05,4.41815616307862e-09,11.344468658629667,166.898576836416,-87.32665227949624,10.11304675457211,-5632.926712310794,78.65553134137033,-76.898576836416,177.32665227949624,10.11304675457211,0.0008285402659189277,2.63784807772625e-08,0
2024-02-06 10:09:14.123724,1.021771788597107,3.225640058517456,-8.839402198791504,1,7.438599999999999e-05,2.116389058407779e-05,1.405657825415253e-09,0.0008226201333814856,2.544334698458952e-08,8.605377663553236e-05,4.365314860374844e-09,17.576410156717326,159.95216062297013,-83.40628080178752,9.464872033318015,-8713.665491545395,72.42358984328268,-69.95216062297014,173.40628080178752,9.464872033318015,0.0008273796266421272,2.585335091493134e-08,0
2024-02-06 10:09:14.213712,0.5934411883354187,3.8525819778442383,-9.46155834197998,1,8.998799999999999e-05,3.376416701712842e-05,1.8341516027622628e-09,0.0008778373434871432,3.8708615761641695e-08,-5.671201654302603e-05,4.594209930856486e-09,8.756858602217092,157.84470171129513,-86.411035887025,10.233066334130456,8536.630448642498,81.24314139778292,-67.84470171129513,176.411035887025,10.233066334130456,0.000880315098936342,3.9023426440704964e-08,0
2024-02-06 10:09:14.288781,2.278048515319824,6.417779445648193,-9.849209785461426,1,7.5069e-05,1.2344289572712142e-05,1.4902055708303471e-09,0.0008012255824486013,2.618364586562401e-08,8.73366583036231e-05,4.365765415643312e-09,19.54277562035909,146.91159412215418,-76.97692036521877,11.974319665399133,23195.371341947768,70.45722437964092,-56.91159412215417,166.97692036521877,11.974319665399133,0.0008060660688422502,2.6586912779113154e-08,0
2024-02-06 10:09:14.363829,1.4453164339065552,6.77910852432251,-9.064335823059082,1,7.5048e-05,1.230519424074528e-05,1.489946751250306e-09,0.0008010870151249166,2.6166821583349494e-08,8.753525053251248e-05,4.363929260600533e-09,12.035352909157998,143.20762429116843,-80.94040195356003,11.410847290707848,-7508.1597736286785,77.964647090842,-53.20762429116842,170.94040195356,11.410847290707848,0.00080594928109208,2.6570027694527e-08,0
2024-02-06 10:09:14.454008,0.8758043646812439,8.061707496643066,-8.303391456604004,1,9.017899999999999e-05,2.986563364246126e-05,1.8089901496007048e-09,0.0009133652087315316,3.913750988293544e-08,-4.386029020177849e-05,4.694352172982701e-09,6.20015924312603,135.84609719352204,-83.9789613377694,11.606225515999165,2166.5601225486853,83.79984075687398,-45.84609719352204,173.97896133776942,11.606225515999165,0.000914905287803412,3.945952442088233e-08,0
2024-02-06 10:09:14.513972,2.471873998641968,7.879846572875977,-6.810216426849365,1,5.9964000000000004e-05,-2.0709417231444145e-05,1.6706626101712638e-09,0.0006725281806262728,1.517862550321242e-08,0.0001844685408974932,2.5701130255971918e-09,17.41641694801452,130.8354617248442,-70.05084649051545,10.704260406854667,-15041.776885206096,72.58358305198549,-40.8354617248442,160.05084649051545,10.704260406854667,0.0006976759106343006,1.5485065924565483e-08,0
2024-02-06 10:09:14.589225,4.623098373413086,6.850895881652832,-6.82218074798584,1,7.5253e-05,3.352809906673072e-05,1.768655023461112e-09,0.0007851373413199183,2.6321749585730078e-08,8.025568069446544e-05,4.593797337556919e-09,34.01213107039811,134.87967203044087,-55.87619591548134,10.716807505488333,166.73220514353193,55.987868929601895,-44.87967203044086,145.87619591548133,10.716807505488333,0.0007899403473969857,2.6778080883895337e-08,0
2024-02-06 10:09:14.663766,2.129688262939453,7.106936931610107,-4.886318206787109,1,7.454099999999999e-05,3.112410702418916e-05,1.745638838092744e-09,0.0007801683528383965,2.5764500758609704e-08,8.44239063223647e-05,4.535171404578927e-09,16.681544639841047,124.51016017260245,-66.45015358237393,8.883705885786908,-24591.85709477235,73.31845536015895,-34.510160172602454,156.45015358237396,8.883705885786908,0.00078533990396984,2.6218782083887272e-08,0
2024-02-06 10:09:14.739226,1.4883887767791748,6.549389362335205,-4.075122356414795,1,7.546e-05,3.2786613423939886e-05,1.7750058141386596e-09,0.0007864434347704645,2.6484358875015983e-08,8.030612438357339e-05,4.610864853688306e-09,12.8033609537757,121.89045599438724,-69.9358949705455,7.855980167366987,-13619.47678796609,77.1966390462243,-31.890455994387235,159.93589497054552,7.855980167366987,0.0007912125578672818,2.694126918613602e-08,0
2024-02-06 10:09:14.813920,1.416601538658142,8.746079444885254,-3.3955366611480717,1,7.4694e-05,3.16740021331274e-05,1.7503173983803028e-09,0.000780585270217299,2.588418688100567e-08,8.316738678729997e-05,4.548254498909862e-09,9.200292184972545,111.21796920950813,-67.35433768963574,9.488431629767565,21855.188668441613,80.79970781502746,-21.217969209508123,157.35433768963577,9.488431629767565,0.0007856420436282489,2.6338970376093913e-08,0
2024-02-06 10:09:14.903929,2.376157760620117,9.12415885925293,-3.3476784229278564,1,9.000900000000001e-05,6.071705646735069e-05,2.4578019296134643e-09,0.0009174266200312373,3.888671293058385e-08,3.153121728098851e-05,5.4265590595627816e-09,14.59701496019001,110.14822297905697,-54.63314500583674,10.005166236278919,5740.921535750363,75.40298503980999,-20.14822297905696,144.63314500583672,10.005166236278919,0.0009199741201529642,3.934037081800033e-08,0
2024-02-06 10:09:14.963727,1.955005884170532,8.652755737304688,-3.4170727729797363,1,5.9798e-05,-4.7073359690345015e-06,1.611747096626149e-09,0.0006488974365929361,1.522660489324739e-08,0.00013371616647077069,2.930414704300582e-09,12.731650204803287,111.54963363115907,-60.22488165474425,9.506240907553313,-8343.511969055931,77.26834979519671,-21.549633631159075,150.22488165474425,9.506240907553313,0.0006625481532722341,1.5589565600674357e-08,0
2024-02-06 10:09:15.054556,0.2177546322345733,9.585989952087402,-2.28283429145813,1,9.0829e-05,2.90041298232489e-05,1.9887240016712123e-09,0.000931880695336699,3.975316799920164e-08,4.5279258412484985e-05,5.707618219076735e-09,1.3013028516971936,103.39507551488556,-84.55116546529815,9.85646756417518,3855.8902621615043,88.69869714830281,-13.395075514885567,174.55116546529817,9.85646756417518,0.0009334308121818124,4.021002729248401e-08,0
2024-02-06 10:09:15.129572,-0.4690099954605102,9.782208442687988,-1.876039981842041,1,7.5016e-05,3.099068035259477e-05,1.5143750350159044e-09,0.0007787460347284074,2.622809775794188e-08,7.816139785433277e-05,4.731634670303141e-09,-2.7449559033809354,100.85641338496394,-104.03624346792648,9.97151434865878,1533.6299520582195,92.74495590338094,-10.856413384963945,-165.96375653207355,9.97151434865878,0.0007832719917043363,2.6694471532511183e-08,0
2024-02-06 10:09:15.204483,-0.2297191768884658,9.002120018005371,-1.148595929145813,1,7.4911e-05,3.1027363634143094e-05,1.5111190877066007e-09,0.000777759857484221,2.6146381198600715e-08,7.832019123965963e-05,4.723419386875706e-09,-1.4617760530239683,97.27117919548728,-101.3099320451821,9.078006847720136,-11927.58741624919,91.46177605302397,-7.27117919548728,-168.69006795481792,9.078006847720136,0.0007823088556086899,2.6612542557675423e-08,0
2024-02-06 10:09:15.279345,0.6149773597717285,8.698221206665039,-1.3208853006362915,1,7.4862e-05,3.1017924808662455e-05,1.5095989781397521e-09,0.0007773261991242166,2.610828159021381e-08,7.83806935297893e-05,4.719580215198854e-09,4.044168463149479,98.63479106445588,-65.0342698001922,8.819409690594163,-3454.3180402069493,85.95583153685052,-8.63479106445588,155.0342698001922,8.819409690594163,0.0007818834085863108,2.6574342777882475e-08,0
2024-02-06 10:09:15.354532,0.4139730930328369,9.29644775390625,-0.8088029623031616,1,7.518700000000001e-05,3.11851292572432e-05,1.519706974425462e-09,0.0007802503328303096,2.6361387776656425e-08,7.803461918706163e-05,4.744997703515344e-09,2.5497106604142874,94.97228659446463,-62.89507640950279,9.34074283955479,6933.820327458565,87.45028933958571,-4.972286594464627,152.8950764095028,9.34074283955479,0.0007847627004134878,2.682810612036813e-08,0
2024-02-06 10:09:15.429542,0.0095716323703527,9.303627014160156,-0.4020085632801056,1,7.500999999999999e-05,3.114764554904501e-05,1.5141905238551048e-09,0.0007786042262133355,2.6223429148181046e-08,7.814177600707576e-05,4.731176092540661e-09,0.058946252203478586,92.47420439805931,-88.63607248103142,9.312313252876935,-379.0106209552816,89.94105374779653,-2.4742043980593116,178.63607248103142,9.312313252876935,0.0007831352718771234,2.6689792739001034e-08,0
2024-02-06 10:09:15.504435,-0.2225404530763626,9.332341194152832,-1.6319633722305298,1,7.4893e-05,3.116010422505631e-05,1.5105455204933202e-09,0.0007775140220731494,2.61323962306563e-08,7.826076336530311e-05,4.722026543987377e-09,-1.366025143732547,99.91911871201042,-97.76516578496769,9.476572210754233,2193.248472851905,91.36602514373254,-9.919118712010405,-172.23483421503232,9.476572210754233,0.0007820637785361256,2.6598522801231337e-08,0
2024-02-06 10:09:15.579400,-0.1890397369861602,9.44480800628662,-0.9475916028022766,1,7.4965e-05,3.114528733821406e-05,1.5127885145895979e-09,0.0007781899994443651,2.6188401575430924e-08,7.816789938620193e-05,4.7276579758464316e-09,-1.1466334812214731,95.72927698615005,-101.28210536897451,9.494106811252811,233.9038284343141,91.14663348122147,-5.729276986150048,-168.7178946310255,9.494106811252811,0.0007827259575694755,2.6654674188638874e-08,0
2024-02-06 10:09:15.669506,-1.148595929145813,9.602740287780762,-1.39745831489563,1,9.010600000000001e-05,2.101871652776195e-05,1.9076961058569693e-09,0.0009223894638046024,3.906263840195724e-08,6.041469898426992e-05,5.776797536810089e-09,-6.8208157988497575,98.27996003701104,-129.41739556211377,9.771631562072375,3079.980809486209,96.82081579884976,-8.279960037011035,-140.58260443788626,9.771631562072375,0.0009246048048953543,3.95335352977148e-08,0
2024-02-06 10:09:15.729178,-0.6724071502685547,9.593168258666992,-2.060293912887573,1,5.9672e-05,4.872892038721039e-05,8.463463149218351e-10,0.0006302853234533069,1.5435586164253632e-08,0.00011303131463444694,3.137469547574074e-09,-4.009435061266986,102.12110774827438,-108.07485342385819,9.834928551967714,1060.7485905506499,94.00943506126698,-12.121107748274385,-161.92514657614183,9.834928551967714,0.0006421916962486622,1.5773944892791866e-08,0
2024-02-06 10:09:15.819524,-0.8901618123054504,11.134201049804688,-2.294798851013184,1,9.034599999999999e-05,2.4763800208212877e-05,1.973504170693841e-09,0.0009481809865373369,3.964452396058013e-08,4.623725691450105e-05,5.5801716294202885e-09,-4.570984880800298,101.64579417519329,-111.20147572884342,11.403022530722728,17356.540176156268,94.5709848808003,-11.645794175193284,-158.7985242711566,11.403022530722728,0.0009496306192192032,4.0083928377674574e-08,0
2024-02-06 10:09:15.894510,-2.275655508041382,10.45222282409668,-2.354621648788452,0,7.4986e-05,4.9077277228476535e-05,1.406404695980067e-09,0.0007823972511857745,2.6353683094866642e-08,8.194480635297758e-05,4.595733383526053e-09,-12.282742717771706,102.69536486158745,-134.0229552420697,10.953164522857762,-5999.2266271699555,102.28274271777171,-12.695364861587457,-135.9770447579303,10.953164522857762,0.0007882061843778211,2.678834358757537e-08,0
2024-02-06 10:09:15.969502,-2.921740770339966,10.90208911895752,-3.6515777111053462,0,7.4992e-05,4.906168503964139e-05,1.4066991128668712e-09,0.0007824613141216036,2.6358377670562564e-08,8.19267877548979e-05,4.596224998308377e-09,-15.002622301096181,108.51790967293451,-128.6643869782985,11.862804730206093,12129.829946505384,105.00262230109618,-18.517909672934497,-141.3356130217015,11.862804730206093,0.0007882669316847383,2.6793061789448898e-08,0
2024-02-06 10:09:16.044379,-2.720736503601074,12.033934593200684,-3.366821765899658,0,7.4877e-05,4.938612748289302e-05,1.401038363646825e-09,0.0007811424927581545,2.626847045166697e-08,8.233034572482571e-05,4.586780213133292e-09,-12.73974126482739,105.630413805687,-128.94175815262705,12.788802825862755,12366.92302919002,102.7397412648274,-15.630413805686999,-141.05824184737298,12.788802825862755,0.0007870202471393918,2.6702696513462866e-08,0
2024-02-06 10:09:16.119525,-2.2852272987365723,12.06504249572754,-3.2495691776275635,0,7.5146e-05,4.871282535147859e-05,1.4142326728030482e-09,0.0007843838051766154,2.64790337387392e-08,8.144044114292128e-05,4.608807383967005e-09,-10.725280026229596,105.07419344215113,-125.11642331640182,12.702252322749276,-1151.7646064125672,100.7252800262296,-15.074193442151126,-144.88357668359822,12.702252322749276,0.0007901034353998366,2.6914315657148357e-08,0
2024-02-06 10:09:16.194490,-2.4551236629486084,11.189238548278809,-2.7781662940979004,0,7.4965e-05,4.914182711351111e-05,1.4053768267549664e-09,0.0007822792927421328,2.633725072837755e-08,8.198595120311245e-05,4.5940172954596885e-09,-12.3756241617201,103.9439469260788,-131.46770496666133,11.787489107028703,-12202.537393724708,102.37562416172011,-13.94394692607878,-138.5322950333387,11.787489107028703,0.0007880973970391381,2.6771829501653157e-08,0
2024-02-06 10:09:16.269543,-2.093794584274292,10.124394416809082,-3.0030996799468994,0,7.5053e-05,4.8941674710633295e-05,1.409692500835229e-09,0.0007832170925925967,2.6406132569332283e-08,8.173157550025446e-05,4.601220866634637e-09,-11.684443063489448,106.52141929275163,-124.88463850520738,10.765962370171486,-13610.73823640916,101.68444306348945,-16.52141929275162,-145.1153614947926,10.765962370171486,0.000788989449920869,2.684105630707585e-08,0
2024-02-06 10:09:16.344469,-2.242154836654663,7.82959508895874,-3.4051082134246826,0,7.492600000000001e-05,4.921700749886227e-05,1.4034594245149262e-09,0.0007820770142589804,2.6306736393547214e-08,8.213849670148354e-05,4.590815117049827e-09,-15.980081427589468,113.5043286582441,-123.3636254296816,8.827489989442807,-25871.825277322685,105.98008142758947,-23.504328658244102,-146.6363745703184,8.827489989442807,0.0007879171927936109,2.6741160436203484e-08,0
2024-02-06 10:09:16.434554,-2.4192299842834477,7.2552971839904785,-3.1586387157440186,0,9.0085e-05,1.3886041248561874e-05,1.8817489824960275e-09,0.000896412955241799,3.902885111737837e-08,3.2388576851849385e-05,5.458873071047314e-09,-18.440617413686287,113.5262000696397,-127.44883064178433,8.274600261128828,-6137.42274867046,108.4406174136863,-23.526200069639707,-142.5511693582157,8.274600261128828,0.0008971053608007148,3.94536626180817e-08,0
2024-02-06 10:09:16.494504,-2.0076498985290527,7.236154079437256,-2.4694812297821045,0,5.995e-05,8.058805388283923e-05,4.5826055410364136e-10,0.0006780630133301016,1.5305434460921256e-08,0.00011719027413106425,3.205093733862263e-09,-15.506519766156181,108.84322591373059,-129.11057522351183,7.905119956121241,-6163.141034321726,105.50651976615619,-18.843225913730585,-140.88942477648817,7.905119956121241,0.0006928184789869818,1.564413476724892e-08,0
2024-02-06 10:09:16.584518,-1.9621846675872805,7.066257476806641,-2.51733922958374,0,9.0014e-05,2.0913500684978518e-05,1.984031922367077e-09,0.0008930568638435598,3.8922508454595726e-08,4.222838898587689e-05,5.6014750778361216e-09,-15.519107838639188,109.60833336891791,-127.93526462294082,7.753654634753963,-1682.6862639953524,105.51910783863919,-19.608333368917897,-142.0647353770592,7.753654634753963,0.0008942992638962293,3.937352625959055e-08,0
2024-02-06 10:09:16.659484,-1.9382555484771729,7.044721603393555,-1.928683876991272,0,7.4966e-05,5.026041287064746e-05,1.4485193967745474e-09,0.0007868858572441335,2.6282619421131926e-08,7.568026683974727e-05,4.714330351404125e-09,-15.383487998690542,105.31109338775569,-135.14182152825802,7.556769054158562,-2626.33167829951,105.38348799869055,-15.311093387755683,-134.85817847174198,7.556769054158562,0.0007921129744056072,2.674133883598694e-08,0
2024-02-06 10:09:16.734520,-2.431194543838501,8.291426658630371,-1.1964540481567385,0,7.5036e-05,5.01074821174164e-05,1.45203227309913e-09,0.0007874226224333044,2.633772021792064e-08,7.557088701236709e-05,4.71962414178895e-09,-16.34208043662152,98.21111016712527,-153.79700187644724,8.722956221074776,15541.702208489445,106.34208043662153,-8.211110167125275,-116.20299812355279,8.722956221074776,0.0007926260814833974,2.67966183694761e-08,0
2024-02-06 10:09:16.809487,-2.931312322616577,8.638398170471191,-1.0528795719146729,0,7.4967e-05,5.0292488604309104e-05,1.4485684741092303e-09,0.0007868385434767004,2.6283408207696742e-08,7.564848902225955e-05,4.714407073315755e-09,-18.743881558848518,96.94914319758435,-160.2425395199335,9.182759404301033,6133.407809119431,108.74388155884851,-6.949143197584347,-109.75746048006648,9.182759404301033,0.0007920649732199378,2.6742130275831304e-08,0
2024-02-06 10:09:16.884489,-2.907383441925049,9.779815673828123,-0.7800880670547485,0,7.5002e-05,5.019031142842964e-05,1.4503269231098031e-09,0.0007871608622189755,2.6310953197296415e-08,7.561641208857759e-05,4.717054209085194e-09,-16.556375235850982,94.56054835494747,-164.9805664432878,10.232605263802341,13997.57152477679,106.55637523585098,-4.560548354947463,-105.0194335567122,10.232605263802341,0.0007923756256648442,2.676976478689471e-08,0
2024-02-06 10:09:16.959488,-2.6896286010742188,9.73195743560791,-0.0909305065870285,0,7.499899999999999e-05,5.019870694649416e-05,1.4501763395822404e-09,0.0007871315945593113,2.6308591758611244e-08,7.561771861643806e-05,4.716827357889136e-09,-15.449243193414715,90.53532731602566,-178.06369151387588,10.097195942301443,-1805.4816931012151,105.44924319341472,-0.5353273160256584,-91.93630848612412,10.097195942301443,0.0007923472071644722,2.6767395690677174e-08,0
2024-02-06 10:09:17.034491,-2.3641932010650635,9.143301963806152,0.2751844227313995,0,7.5003e-05,5.018859930288986e-05,1.4503771141947397e-09,0.0007871693450781103,2.6311740360490526e-08,7.561808712427036e-05,4.717129829500618e-09,-14.497500964883796,88.27609894079164,173.36083241855403,9.44802131453024,-8655.315490996394,104.49750096488381,1.7239010592083615,-83.36083241855404,9.44802131453024,0.0007923841041004171,2.6770554503028332e-08,0
2024-02-06 10:09:17.109485,-2.055508136749268,9.325162887573242,0.7202653288841248,0,7.499400000000001e-05,5.020848795891001e-05,1.449925327302062e-09,0.0007870862369862791,2.6304656210371243e-08,7.561360760038809e-05,4.7164492868743576e-09,-12.430696360655526,85.58330616245583,160.6891598368709,9.576145295681782,1708.4564252012278,102.43069636065553,4.416693837544182,-70.6891598368709,9.576145295681782,0.0007923023755932369,2.6763447380265346e-08,0
2024-02-06 10:09:17.214384,-2.172760486602783,9.526166915893556,1.3472073078155518,0,0.000104899,-1.3014698631761506e-05,2.00606546221625e-09,0.0010689607458726164,5.4057198721568874e-08,0.00010652749220063999,7.4399140816492296e-09,-12.848424803437494,81.95051024679114,148.19926229755498,9.86325056823758,2736.9686322634034,102.8484248034375,8.049489753208858,-58.19926229755499,9.86325056823758,0.001074334475473804,5.4603638649857456e-08,0
2024-02-06 10:09:17.304399,-2.167974710464477,10.124394416809082,1.8425391912460327,0,9.0015e-05,1.9289052704813053e-05,1.9593717192046003e-09,0.0009227212684346433,3.9235101171094246e-08,8.278939875462368e-05,6.0310177791601575e-09,-12.086433066785418,79.68562081760284,139.63913539162792,10.516578689079735,7257.991677411033,102.08643306678542,10.314379182397163,-49.63913539162791,10.516578689079735,0.0009266286695985821,3.974425086591224e-08,0
2024-02-06 10:09:17.394491,-1.1892752647399902,8.719757080078125,0.8758043646812439,0,9.0092e-05,1.915979858076767e-05,1.960851999979095e-09,0.0009234467682672734,3.9306178640507275e-08,8.289405498152688e-05,6.037396592129e-09,-7.7665689508256275,84.26449969227305,143.63137981374973,8.843956833685343,-18565.709001846903,97.76656895082563,5.735500307726956,-53.63137981374973,8.843956833685343,0.0009273577821187503,3.981545902656333e-08,0
2024-02-06 10:09:17.423853,-0.4594383537769317,9.303627014160156,0.7130866050720215,0,2.9361999999999998e-05,6.922298760703402e-05,-7.228913026135034e-10,0.00037616671024572794,-1.5658463454002095e-10,3.464738068496897e-05,2.4682508981158525e-09,-2.8271244719243493,85.61707198021634,122.79349338493206,9.342218779597545,16969.618755949912,92.82712447192435,4.382928019783669,-32.79349338493206,9.342218779597545,0.00038404902929009755,2.5766942153111593e-09,0
2024-02-06 10:09:17.499482,0.3158638775348663,8.877689361572266,0.5958341360092163,0,7.5629e-05,6.59016074608882e-05,2.4030135173902757e-09,0.000796764192623734,2.6977412406990682e-08,6.492729864877179e-05,4.7717617424829455e-09,2.037696467883239,86.16030048961245,62.07102142608522,8.90326663126173,-5804.018938975991,87.96230353211676,3.839699510387555,27.92897857391478,8.90326663126173,0.0008021170454635074,2.750136295292724e-08,0
2024-02-06 10:09:17.574337,0.7633376717567444,9.526166915893556,1.1820966005325315,0,7.4855e-05,6.548395646131234e-05,2.352167304152384e-09,0.0007896419002443546,2.636347324905073e-08,6.423923945373014e-05,4.721774292237277e-09,4.581357627647643,82.92635870070046,57.14768880734155,9.629532329432127,9702.300423089942,85.41864237235237,7.073641299299533,32.85231119265844,9.629532329432127,0.0007949522998651782,2.6886066377344414e-08,0
2024-02-06 10:09:17.649512,-0.1316099464893341,9.796566009521484,1.3639576435089111,0,7.517500000000001e-05,6.558503289735513e-05,2.3731383424497715e-09,0.0007927335375124212,2.661665331909182e-08,6.464660813277678e-05,4.742396027851119e-09,-0.7696820364156405,82.0737684980826,95.51147735073862,9.891936474230564,3490.577250394897,90.76968203641565,7.9262315019174086,-5.511477350738617,9.891936474230564,0.0007980645600326939,2.713979254869324e-08,0
2024-02-06 10:09:17.723796,0.0191432647407054,9.25576877593994,1.6846072673797607,0,7.428400000000001e-05,6.563513680407415e-05,2.3146797568477845e-09,0.0007842457223654981,2.5914109058816206e-08,6.328847246497587e-05,4.68540094944482e-09,0.11850195681677636,79.6847261662196,89.34893960825363,9.407843735073323,-6516.783414426265,89.88149804318323,10.315273833780397,0.6510603917463758,9.407843735073323,0.0007895281850439676,2.643580474935536e-08,0
2024-02-06 10:09:17.799503,0.12921704351902,9.308412551879885,0.9978426694869996,0,7.5707e-05,6.574069516340094e-05,2.4081536612926426e-09,0.0007974541373802418,2.703948850902529e-08,6.519703559505656e-05,4.776818388429533e-09,0.7953145269294161,83.88137613809414,82.62146375170722,9.362634846739443,-597.1559873443662,89.20468547307058,6.118623861905859,7.378536248292772,9.362634846739443,0.0008028110572705236,2.7563583526133652e-08,0
2024-02-06 10:09:17.874348,0.0095716323703527,9.81092357635498,1.8281817436218264,0,7.484499999999999e-05,6.568087724409262e-05,2.3515109635850124e-09,0.0007892137035089725,2.6355634669602035e-08,6.397901907300665e-05,4.721143508867597e-09,0.055898301480778276,79.4444836612932,89.70002483127799,9.979807689777212,8246.01300070505,89.94410169851923,10.5555163387068,0.29997516872202007,9.979807689777212,0.0007945222226743856,2.687821196956211e-08,0
2024-02-06 10:09:17.964488,-0.2105759084224701,9.885103225708008,1.619998812675476,0,9.014e-05,6.414369704298404e-05,3.3443443954454317e-09,0.0009398390684777493,3.95785657433705e-08,9.034897987729028e-05,5.901366880839994e-09,-1.2203500592808045,80.69293804237775,97.40607959001215,10.019181810366591,436.81074538916073,91.2203500592808,9.307061957622256,-7.4060795900121565,10.019181810366591,0.0009463481529925087,4.015561774895168e-08,0
2024-02-06 10:09:18.024351,-0.7944455146789551,10.516831398010254,2.3163349628448486,0,5.9863e-05,7.935821385660497e-05,1.1719407172920029e-09,0.0006309843811765904,1.5798654950778274e-08,3.075879101657584e-05,4.067976891163201e-09,-4.319940797627091,77.57890472287805,108.93069836899865,10.798161602331447,13012.708884701,94.3199407976271,12.421095277121958,-18.930698368998645,10.798161602331447,0.000636698608935277,1.6356019665115215e-08,0
2024-02-06 10:09:18.114516,-1.139024257659912,9.887495994567873,0.5934411883354187,0,9.0165e-05,5.006421333589879e-05,3.1328199116856276e-09,0.0009401303455015416,3.960261417467865e-08,7.484480948310808e-05,5.667977042333913e-09,-6.571418340654805,86.56526433258973,152.48010842115278,9.970562960342129,-9178.712826366313,96.5714183406548,3.4347356674102714,-62.48010842115276,9.970562960342129,0.0009444327596480086,4.012863782661874e-08,0
2024-02-06 10:09:18.189452,-0.5288326740264893,8.006670951843262,0.0789659693837165,0,7.4936e-05,6.276410994222489e-05,2.273688644084355e-09,0.000803875211288094,2.6322883862503974e-08,6.972476518065573e-05,4.567152016056683e-09,-3.7788407510215762,89.43493742768537,171.50727049668112,8.024504928812082,-25969.601146712484,93.77884075102158,0.5650625723146299,-81.50727049668109,8.024504928812082,0.0008093307307274419,2.6812734892712472e-08,0
2024-02-06 10:09:18.264505,-1.1294525861740112,8.84658145904541,0.181861013174057,0,7.5053e-05,6.266710025450316e-05,2.2810263698808633e-09,0.000804861126554131,2.6416994938267742e-08,6.974002355913536e-05,4.575310706197961e-09,-7.275653457747467,88.82232463181464,170.85291944028737,8.920243274936725,11934.744062524393,97.27565345774747,1.1776753681853656,-80.85291944028738,8.920243274936725,0.0008103038130098622,2.69071397760298e-08,0
2024-02-06 10:09:18.339484,-1.5673547983169556,10.880553245544434,1.555390238761902,0,7.4979e-05,6.276688212772933e-05,2.2763853125327206e-09,0.0008041312225700613,2.6357462221350148e-08,6.967574526281373e-05,4.570152322751549e-09,-8.197127186450986,81.86460560517831,135.21952333722393,11.1023546506032,29102.96717302811,98.19712718645098,8.135394394821697,-45.21952333722394,11.1023546506032,0.0008095810114386244,2.6847421423558842e-08,0
2024-02-06 10:09:18.414441,-1.6965718269348145,9.578810691833496,1.4477094411849976,0,7.4957e-05,6.280278532060711e-05,2.2750040461907884e-09,0.00080390616956675,2.6339773810036636e-08,6.96427111663343e-05,4.568619819730828e-09,-10.043903290934491,81.40555238011277,139.52539090334446,9.835030902850729,-16907.343513647436,100.0439032909345,8.594447619887239,-49.52539090334446,9.835030902850729,0.0008093574158121417,2.6829677874162293e-08,0
2024-02-06 10:09:18.489466,-1.524282455444336,9.100229263305664,1.5362470149993896,0,7.5025e-05,6.269327627500623e-05,2.279270912285039e-09,0.0008045412569252248,2.6394461022537362e-08,6.974416568584456e-05,4.573358973543802e-09,-9.508735542484716,80.418006134616,134.7760141568002,9.354018630502866,-6411.359844689946,99.50873554248473,9.581993865384002,-44.77601415680017,9.354018630502866,0.0008099884749995702,2.6884535719679565e-08,0
2024-02-06 10:09:18.564476,-1.6319633722305298,9.205517768859863,2.242154836654663,0,7.500999999999999e-05,6.27169481187138e-05,2.278330335602086e-09,0.0008044039638224835,2.638239393338175e-08,6.971582767195714e-05,4.572313023593618e-09,-10.053004236207958,76.31121288283025,126.04918379388982,9.614162477960866,3468.1222164778037,100.05300423620795,13.68878711716976,-36.04918379388984,9.614162477960866,0.0008098514982530036,2.6872430949952905e-08,0
2024-02-06 10:09:18.639472,-1.643927812576294,9.437629699707031,2.249333620071411,0,7.4996e-05,6.273987935700743e-05,2.2774521378097567e-09,0.0008042734617902036,2.6371133191402468e-08,6.968438725276008e-05,4.571337222089146e-09,-9.881132762088676,76.59440983443646,126.16124084611307,9.840267005327531,3014.8878255729014,99.88113276208868,13.405590165563552,-36.16124084611308,9.840267005327531,0.0008097209442940961,2.6861135084667605e-08,0
2024-02-06 10:09:18.729485,-1.6367491483688354,9.562060356140137,3.2304258346557617,0,9.0013e-05,3.8106916395750927e-05,3.034660303719343e-09,0.000946932634574532,3.952006416595708e-08,0.00011082916111857904,5.926723200035346e-09,-9.713251481333668,71.3330855178469,116.86981391749882,10.224851935473898,4272.548744585419,99.71325148133367,18.666914482153107,-26.86981391749881,10.224851935473898,0.0009541575626979564,4.007705930741641e-08,0
2024-02-06 10:09:18.789470,-1.0145930051803589,10.99780559539795,2.730308055877685,0,5.9984999999999996e-05,7.791416748913852e-05,1.2927197502716128e-09,0.0006382468071781392,1.5720180027482476e-08,2.1334702486109874e-05,3.942414951874546e-09,-5.270853069829598,76.05766028614335,110.38526028077841,11.376981539948016,19206.96181502238,95.2708530698296,13.942339713856654,-20.385260280778414,11.376981539948016,0.000643338770710102,1.6258469180767458e-08,0
2024-02-06 10:09:18.879369,0.2033971846103668,8.458930015563965,1.2873845100402832,0,8.9899e-05,6.578111160087315e-05,3.441970039620918e-09,0.0009292612017112966,3.916539731644177e-08,8.142733019454494e-05,5.4794266746791e-09,1.3774265803463255,81.34642528043203,81.0219045063615,8.558751445135446,-31348.84809411195,88.62257341965368,8.653574719567978,8.978095493638506,8.558751445135446,0.0009351384634116922,3.9696342670220607e-08,0
2024-02-06 10:09:18.954487,0.95477032661438,8.210067749023438,0.825553297996521,0,7.511800000000001e-05,5.7221674609166665e-05,2.532917948135619e-09,0.0008060689737321134,2.6340439654827256e-08,6.581166332424895e-05,4.391256893078454e-09,6.63328088755304,84.25799381548518,40.84871501057384,8.306523765569509,-3357.7528630413117,83.36671911244697,5.742006184514819,49.15128498942616,8.306523765569509,0.000810772893903172,2.682382470198075e-08,0
2024-02-06 10:09:19.029480,1.1749178171157837,10.535974502563477,1.9334697723388672,0,7.4993e-05,5.708856910018353e-05,2.5257735579037843e-09,0.0008048973460913892,2.6239754259838285e-08,6.563922438235298e-05,4.383041212596791e-09,6.3630422413324315,79.60128052105412,58.71407018812243,10.776154042894522,32931.47730221505,83.63695775866758,10.398719478945871,31.285929811877576,10.776154042894522,0.000809584677624512,2.6722935578896068e-08,0
2024-02-06 10:09:19.104505,0.6748000979423523,9.174409866333008,2.1392598152160645,0,7.5025e-05,5.711816458682445e-05,2.527600865642776e-09,0.0008052127122412915,2.62655160207716e-08,6.570438805575384e-05,4.3851427103958e-09,4.206668497086344,76.8744819414006,72.49283641559448,9.444659026383627,-17747.35110311089,85.79333150291366,13.125518058599392,17.507163584405525,9.444659026383627,0.0008099055891216738,2.6748749028018956e-08,0
2024-02-06 10:09:19.179507,0.619763195514679,8.604897499084473,1.964577555656433,0,7.5002e-05,5.71032771089497e-05,2.5262873190632746e-09,0.0008050082502065892,2.6246998479703454e-08,6.565719392598882e-05,4.38363205220301e-09,4.119584589648081,77.13927601440335,72.49113312293905,8.84804681048048,-7954.6174222440495,85.88041541035192,12.860723985596648,17.508866877060957,8.84804681048048,0.0008096974337809717,2.6730194289999405e-08,0
2024-02-06 10:09:19.254532,0.308685153722763,9.396949768066406,2.8284173011779785,0,7.5025e-05,5.711395426496593e-05,2.5276008172240743e-09,0.0008052152714501615,2.6265516050202504e-08,6.57123133668424e-05,4.385142801536878e-09,1.8814614673070948,73.24856635442939,83.77155769447835,9.818243014780958,12931.638844391582,88.11853853269291,16.751433645570618,6.228442305521663,9.818243014780958,0.0008099084795681299,2.6748749067284396e-08,0
2024-02-06 10:09:19.329466,0.27997025847435,9.207910537719728,2.6513421535491943,0,7.4934e-05,5.708717044371096e-05,2.52240466604983e-09,0.0008043687503062482,2.619227997721259e-08,6.546298431165232e-05,4.379174325492506e-09,1.741564885748664,73.93667976423114,83.97215178165611,9.586115742649215,-3097.756320652082,88.25843511425134,16.063320235768867,6.027848218343893,9.586115742649215,0.0008090447662604909,2.667536735411631e-08,0
2024-02-06 10:09:19.404448,0.0717872455716133,9.229446411132812,2.555625915527344,0,7.4982e-05,5.709561262380806e-05,2.52514505284345e-09,0.0008048112468730206,2.623090029714489e-08,6.558795154531015e-05,4.382319547953073e-09,0.4456413817887752,74.52263482736304,88.39099107707443,9.577006749747756,-121.48239446078098,89.55435861821123,15.47736517263697,1.6090089229255709,9.577006749747756,0.0008094954178141493,2.6714063946861908e-08,0
2024-02-06 10:09:19.494156,0.3302213251590729,9.851602554321287,3.357249975204468,0,8.9708e-05,6.005560173009811e-05,3.3877294441312616e-09,0.0009453050104056592,3.9117006299487816e-08,0.00010912445672876851,5.6687270100751145e-09,1.9198101908903455,71.1818078298822,84.3824191373574,10.413176576237912,9321.017372922774,88.08018980910965,18.818192170117797,5.6175808626426,10.413176576237912,0.0009534759488595171,3.967053514304488e-08,0
2024-02-06 10:09:19.554505,-0.4379021823406219,11.41417121887207,2.3976938724517822,0,6.0349e-05,6.163630287309466e-05,1.601353130508693e-09,0.0006331340843020673,1.5946309608725742e-08,2.4644758517098595e-05,3.7050618148734082e-09,-2.1970625519961158,78.13676940520253,100.35012781958065,11.671503709506288,20850.83652203641,92.19706255199611,11.863230594797477,-10.350127819580644,11.671503709506288,0.0006366044035814135,1.644921290025641e-08,0
2024-02-06 10:09:19.644267,-1.1653462648391724,9.341913223266602,0.93323415517807,0,8.9762e-05,3.8058129584645024e-05,3.0675093014484417e-09,0.0009383834401503797,3.905783208208565e-08,7.363105155543702e-05,5.150355015705153e-09,-7.110565628851539,84.2952192909337,141.31150860147451,9.460459850155749,-24632.292722427523,97.11056562885155,5.704780709066292,-51.3115086014745,9.460459850155749,0.0009420368537000568,3.951518716967782e-08,0
2024-02-06 10:09:19.719188,-2.045936346054077,8.640790939331055,0.4977248907089233,0,7.4921e-05,6.188745219877838e-05,2.3258631118245483e-09,0.0008049427839118238,2.6121479836432065e-08,6.301261995543258e-05,4.136390651258745e-09,-13.320972650109104,86.70330431774828,166.32698223609395,8.893641192231783,-7565.551152867228,103.3209726501091,3.2966956822517286,-76.32698223609395,8.893641192231783,0.0008097737538257343,2.6549031539396945e-08,0
2024-02-06 10:09:19.794360,-1.97893500328064,9.820494651794434,0.4809745252132416,0,7.5172e-05,6.138233084443685e-05,2.3413334695964725e-09,0.0008072596752535102,2.6323811245057323e-08,6.313544673213082e-05,4.152222233628035e-09,-11.393137283199883,87.1960875087711,166.33930068738835,10.029438441260634,15109.312630086348,101.39313728319989,2.8039124912289086,-76.33930068738833,10.029438441260634,0.0008120480641343617,2.6751931338852786e-08,0
2024-02-06 10:09:19.868720,-1.5386399030685425,9.629061698913574,1.3376356363296509,0,7.436e-05,6.281046625641463e-05,2.2909111939735263e-09,0.0007993631553751227,2.5671522375822093e-08,6.23970910065444e-05,4.101256023306132e-09,-9.078615160950628,82.09128473529192,138.9975317664606,9.842535803764097,-2513.4835596629537,99.07861516095063,7.908715264708078,-48.997531766460604,9.842535803764097,0.000804251208148735,2.6097809029872842e-08,0
2024-02-06 10:09:19.943733,-1.581712245941162,9.2725191116333,1.1581674814224243,0,7.5013e-05,6.179167127976297e-05,2.331593791879088e-09,0.0008055345215097661,2.6195521467325006e-08,6.321197072449044e-05,4.142267381961314e-09,-9.680375995098935,82.88044357254701,143.78752096883366,9.47748786438629,-4866.462338232124,99.68037599509894,7.119556427452991,-53.78752096883364,9.47748786438629,0.0008103701803659782,2.6623299074665315e-08,0
2024-02-06 10:09:20.019128,-1.3902796506881714,9.380199432373049,1.770751953125,0,7.5395e-05,6.122402082750675e-05,2.355089789071577e-09,0.0008090971907516715,2.650391612436695e-08,6.377139433648902e-05,4.166521204687962e-09,-8.430677555812112,79.30976160871003,128.13670548710058,9.646583922700579,2242.8020202173643,98.43067755581211,10.690238391289965,-38.136705487100585,9.646583922700579,0.0008139124249845025,2.693258095302383e-08,0
2024-02-06 10:09:20.094513,-0.9188767075538636,8.83700942993164,2.0124356746673584,0,7.5385e-05,6.123556660929797e-05,2.3544774911343927e-09,0.0008090061047073599,2.6495825607889647e-08,6.375247839835005e-05,4.165883585324287e-09,-5.936311095876386,77.17092502682682,114.54140554670113,9.109718294934241,-7121.650563989352,95.93631109587639,12.829074973173183,-24.54140554670112,9.109718294934241,0.0008138212645130807,2.6924467031799046e-08,0
2024-02-06 10:09:20.169274,-1.170132040977478,9.310805320739746,2.6321988105773926,0,7.4761e-05,6.188733733883975e-05,2.316063145102574e-09,0.0008033439865051504,2.5992772379431344e-08,6.230335243895369e-05,4.126554166103049e-09,-7.163072132071189,74.21420779087943,113.96732205575397,9.746218512451007,8513.800210226795,97.16307213207119,15.78579220912057,-23.967322055753975,9.746218512451007,0.000808129513693202,2.6420007830180783e-08,0
2024-02-06 10:09:20.258923,-1.021771788597107,9.23423194885254,2.943276882171631,0,8.964900000000001e-05,4.557080523148652e-05,3.1159815583960833e-09,0.0009413932439399955,3.898059632286502e-08,0.00010380719349577746,5.363081070041188e-09,-6.3141175604676585,72.32107688043274,109.14467421655799,9.74566242378156,-6.202954516463684,96.31411756046766,17.67892311956725,-19.144674216557988,9.74566242378156,0.0009481950598093115,3.9470987691243004e-08,0
2024-02-06 10:09:20.319479,-0.4809745252132416,11.811394691467283,3.182567834854126,0,6.0556e-05,6.743050448532877e-05,1.4722080066004292e-09,0.0006352530360165831,1.6045911211476643e-08,1.4697593319562262e-05,3.6392511886318486e-09,-2.331866296345028,74.91985680996879,98.59395227430905,12.242104356481107,41225.3440237061,92.33186629634504,15.080143190031212,-8.593952274309043,12.242104356481107,0.0006389908543577281,1.6519164998124103e-08,0
2024-02-06 10:09:20.439073,-0.6771929860115051,10.327791213989258,2.1033661365509038,0,0.00011959400000000001,3.324255772148546e-05,4.443976129883379e-09,0.001288779664759755,7.284143250569338e-08,0.00017073307822146734,9.112979181851502e-09,-3.7515123939534774,78.4885295461112,107.84631477149703,10.56153449099353,-14052.292468581842,93.75151239395349,11.511470453888803,-17.84631477149703,10.56153449099353,0.0013004644846904164,7.354365780197036e-08,0
2024-02-06 10:09:20.529084,-0.3780794739723205,7.915740013122559,1.3926725387573242,0,9.001099999999999e-05,4.885162031333623e-05,3.2296800954813133e-09,0.0010189304726139303,3.8706938008730485e-08,0.00011902142215564566,4.8270754895234325e-09,-2.734540023591675,80.02166499431215,105.18845649811927,8.046205369253103,-27944.685891062505,92.73454002359168,9.978335005687866,-15.188456498119258,8.046205369253103,0.0010270208799048042,3.9140241967984957e-08,0
2024-02-06 10:09:20.558727,0.44268798828125,9.38498592376709,0.8327320218086243,0,2.9643e-05,4.69014769174355e-05,3.3946860866769997e-10,0.0004967253609348532,-7.0416176711059956e-09,5.184981089952308e-05,-3.305018090137795e-10,2.700629172981114,84.92941111079652,62.00447813177484,9.432251908447972,46757.97116333936,87.29937082701889,5.07058888920348,27.995521868225158,9.432251908447972,0.0005016216060171384,7.0575385091449825e-09,0
2024-02-06 10:09:20.634467,-0.1005021408200264,10.318220138549805,2.177546262741089,0,7.574e-05,5.4788347422645514e-05,2.6832665249700574e-09,0.0009508547058621642,2.6322931498465064e-08,0.00012123220994096714,3.6587791483282595e-09,-0.5580581079678685,78.0832200712165,92.64254544153482,10.545969620393462,14704.485238255747,90.55805810796787,11.916779928783496,-2.642545441534813,10.545969620393462,0.0009601164947029595,2.6711108302972953e-08,0
2024-02-06 10:09:20.709132,-0.1986113786697387,8.944690704345703,1.4118157625198364,0,7.466499999999999e-05,5.494912093937126e-05,2.6242826357254728e-09,0.0009405008912841078,2.530632786499893e-08,0.00011930292785238937,3.529491511764329e-09,-1.2720086710088505,81.03052217731798,98.0077050661032,9.057602443441917,-19933.93393091201,91.27200867100886,8.969477822682025,-8.007705066103192,9.057602443441917,0.0009496286226690744,2.568568472310224e-08,0
2024-02-06 10:09:20.783895,0.0478581637144088,9.822887420654297,1.3519930839538574,0,7.4763e-05,5.4941734031838446e-05,2.6296672876190626e-09,0.0009414205026122329,2.539854201329986e-08,0.0001194383544858666,3.5411898345989047e-09,0.27914898974128227,82.16321788409091,87.97267723810401,9.915608553273046,11476.346720050407,89.72085101025873,7.83678211590909,2.027322761895994,9.915608553273046,0.000950555983306289,2.5778694922156138e-08,0
2024-02-06 10:09:20.859461,-0.0023929080925881,9.40891456604004,2.1177237033843994,0,7.556599999999999e-05,5.4959988331970606e-05,2.673792829148131e-09,0.0009491420711098905,2.615760288664928e-08,0.00012083144577598288,3.6376581594040355e-09,-0.014571662921340458,77.31545540987344,90.06474096497998,9.644295346002512,-3590.4137743235615,90.01457166292134,12.684544590126556,-0.0647409649799625,9.644295346002512,0.0009583796271606242,2.654433863846537e-08,0
2024-02-06 10:09:20.934530,-0.1698964685201645,9.310805320739746,2.390515089035034,0,7.5069e-05,5.5002802242058875e-05,2.646467075690485e-09,0.0009444902207180258,2.568703526213005e-08,0.00011971114843606667,3.5778833247423422e-09,-1.0453736376613643,75.6005391929069,94.06523699478086,9.614287437019728,-399.7376944249105,91.04537363766137,14.399460807093119,-4.065236994780857,9.614287437019728,0.0009536340201284484,2.606969155218557e-08,0
2024-02-06 10:09:21.024250,-0.1196454018354415,8.971012115478516,2.61305570602417,0,8.971999999999999e-05,5.2881763270768886e-05,3.4367754603547044e-09,0.0010784136743470425,4.0505817745429205e-08,0.00015636480629527285,5.600277731126769e-09,-0.7641022070879773,73.76033676281878,92.62160195847095,9.344593812522199,-3005.94766493011,90.76410220708797,16.23966323718122,-2.6216019584709485,9.344593812522199,0.0010909731832419497,4.1035299529266e-08,0
2024-02-06 10:09:21.099467,-0.0837517827749252,9.447200775146484,3.105994701385498,0,7.521700000000001e-05,5.435669795497096e-05,2.659135758776253e-09,0.0009448540035706755,2.5834092179008894e-08,0.00011489311226594171,3.6332509346801245e-09,-0.5079280188579263,71.80047546779683,91.5445812506287,9.945039966339055,7982.851666735657,90.50792801885794,18.199524532203174,-1.5445812506286873,9.945039966339055,0.0009533646552721872,2.622349774632448e-08,0
2024-02-06 10:09:21.174264,-0.44268798828125,11.17248821258545,2.7494513988494877,0,7.479700000000001e-05,5.446725030689275e-05,2.6362827296412616e-09,0.0009405238688832518,2.543816282579357e-08,0.00011366346858489236,3.5852540527014493e-09,-2.2690462135185463,76.17473159896535,99.14666829123395,11.51433665088722,20980.743673518526,92.26904621351855,13.825268401034647,-9.146668291233949,11.51433665088722,0.0009489316168122246,2.5824487627145732e-08,0
2024-02-06 10:09:21.249541,-0.8423036336898804,8.992548942565918,1.7922881841659546,0,7.527699999999999e-05,5.415885231761969e-05,2.6623529942711437e-09,0.0009453634778004879,2.5890775788997652e-08,0.00011475348608481602,3.640074121822177e-09,-5.351101743103472,78.7281887287903,115.17164415299635,9.208024154555172,-30637.678126546594,95.35110174310347,11.271811271209696,-25.171644152996354,9.208024154555172,0.0009538415219584506,2.6280611371020482e-08,0
