timestamp,ax,ay,az,fall_state,time_interval,vx,dx,vy,dy,vz,dz,angle_xy,angle_yz,angle_zx,g_force,jerk,orientation_xy,orientation_yz,orientation_zx,magnitude_acceleration,magnitude_velocity,magnitude_displacement,impact_detection
2024-02-06 10:41:47.209513,0.3804723918437958,9.337127685546877,2.481445789337158,0,0.0,0.0,0.0,0.0,0.0,0.0,0.0,2.333416607779049,75.11703156079763,81.28290313877011,9.668727210061334,inf,87.66658339222096,14.88296843920238,8.717096861229898,9.668727210061334,0.0,0.0,1
2024-02-06 10:41:47.284297,0.3493645787239074,9.349091529846191,2.5245180130004883,0,7.478400000000001e-05,2.7290064003467563e-05,1.0204300732176592e-09,0.0006987151089019776,2.6126355352062752e-08,0.0001871829984970093,6.999146679800172e-09,2.1400802540401167,74.88892089904542,82.12095972503415,9.690240411892404,287.67118409111237,87.85991974595989,15.111079100954592,7.879040274965847,9.690240411892404,0.0007238680998134586,2.7066875988224846e-08,0
2024-02-06 10:41:47.359315,0.3924369215965271,9.349091529846191,2.4981961250305176,0,7.5018e-05,2.7376854779005054e-05,1.0268261027152084e-09,0.0007009027963199617,2.629011064697372e-08,0.0001877706560511589,7.043016257382307e-09,2.4036332491703103,75.03937765736205,81.07247080165787,9.685065980673103,-68.9758620504479,87.59636675082969,14.960622342637958,8.927529198342135,9.685065980673103,0.0007261350021453415,2.7236526351153697e-08,0
2024-02-06 10:41:47.434309,0.3421858549118042,9.327555656433104,2.550840139389038,0,7.499400000000001e-05,2.7368039305686953e-05,1.0261691639861922e-09,0.0007006786765537264,2.6273291669299236e-08,0.00018771006761598587,7.038510488698302e-09,2.1009809845999787,74.7050883310531,82.35959362389384,9.676113429465222,-119.37689959039193,87.89901901540001,15.294911668946911,7.640406376106171,9.676113429465222,0.000725902670360784,2.721910189908368e-08,0
2024-02-06 10:41:47.509304,0.3756865561008453,9.356270790100098,2.541268348693848,0,7.499500000000001e-05,2.736839824189246e-05,1.026196532204966e-09,0.0007006880184669496,2.6273992352646747e-08,0.0001877126136702299,7.038698200038945e-09,2.299388010360172,74.80441500215765,81.5906293325752,9.702524841822791,352.1756431438073,87.70061198963984,15.195584997842344,8.409370667424799,9.702524841822791,0.000725912359569925,2.7219827806598644e-08,0
2024-02-06 10:41:47.584271,0.2680056989192962,9.475915908813477,2.232583284378052,0,7.4967e-05,2.7359386550322174e-05,1.0254303432178748e-09,0.0007004243678531648,2.6254376779238262e-08,0.0001876457797473669,7.0334431825310976e-09,1.6200547934052936,76.74254546807292,83.15480535086509,9.739057320256507,487.3141306670281,88.37994520659471,13.25745453192709,6.84519464913492,9.739057320256507,0.0007256402481753012,2.7199506070090507e-08,0
2024-02-06 10:41:47.673612,0.5072965025901794,9.554882049560549,2.184725046157837,0,8.9341e-05,3.2931483472570776e-05,1.4587408260724063e-09,0.0008371987127799988,3.7305273859748804e-08,0.0002193929747189283,9.95883071088036e-09,3.039146227929732,77.12071300942804,76.92749223197332,9.814588338278075,845.4239153531753,86.96085377207027,12.879286990571957,13.07250776802669,9.814588338278075,0.0008660943624341469,3.863922478099789e-08,0
2024-02-06 10:41:47.749190,0.7968384027481079,8.930333137512207,2.4623024463653564,0,7.5578e-05,2.3957079121485352e-05,1.067262182581409e-09,0.0007099927044701577,2.6658276121941856e-08,0.00018741445502912994,7.159385383069099e-09,5.098901392115866,74.58521846371129,72.06763280719639,9.29778117210873,-6838.063539248788,84.90109860788414,15.41478153628871,17.932367192803614,9.29778117210873,0.0007347024976102555,2.7623532240163767e-08,0
2024-02-06 10:41:47.823690,0.667621374130249,9.894675254821776,2.467088222503662,0,7.45e-05,2.3167735301747912e-05,1.0418619076072862e-09,0.0006998460249466896,2.589837304678617e-08,0.00018475751345860953,6.958784692054206e-09,3.860055624270165,75.99962600296274,74.85779730439499,10.219434475311939,12371.185277895427,86.13994437572984,14.000373997037258,15.14220269560501,10.219434475311939,0.0007241937181252698,2.683721086654482e-08,0
2024-02-06 10:41:47.898800,0.8877689242362976,8.911190032958984,2.871489763259888,0,7.510999999999999e-05,2.3642129342749705e-05,1.0561389163238578e-09,0.0007055818138594627,2.6327028537622043e-08,0.0001863857797442674,7.071983396481083e-09,5.6892657944242115,72.13928670061,72.82013429918887,9.404408270957484,-10851.101109765075,84.31073420557578,17.86071329939,17.179865700811135,9.404408270957484,0.000730167313168665,2.7280777301819008e-08,0
2024-02-06 10:41:47.988741,0.3565433025360107,9.21748161315918,2.495803117752075,0,8.9941e-05,3.286932666037976e-05,1.4751996183150645e-09,0.000840014978451252,3.778840155100215e-08,0.00022618694010341164,1.0131416400511549e-08,2.2151654717283726,74.84939602821267,81.86989764584403,9.55605167514763,1686.032000868861,87.78483452827163,15.15060397178734,8.130102354155978,9.55605167514763,0.0008705550462382655,3.9150799531736424e-08,0
2024-02-06 10:41:48.094319,0.1196454018354415,9.667348861694336,2.311549186706543,0,0.00010557800000000001,3.6592408045507964e-05,2.0182861911130483e-09,0.0009876660255188944,5.207812548054276e-08,0.00026377322409582135,1.3962169944303255e-08,0.7090699516732767,76.5525518734729,87.03702410137267,9.94058392039657,3642.1626214641256,89.29093004832673,13.447448126527116,2.96297589862734,9.94058392039657,0.001022936701873954,5.395504445619519e-08,0
2024-02-06 10:41:48.123922,-0.9667348861694336,8.973404884338379,1.928683876991272,0,2.9603e-05,6.87712198316455e-05,-1.98421462287032e-09,0.0002795503925914765,3.939741797575032e-09,0.00010269737058860056,4.0868228728774627e-11,-6.148949717326938,77.86977050403961,116.62189315062234,9.229105756018347,-24033.988595014784,96.14894971732694,12.130229495960398,-26.621893150622352,9.229105756018347,0.00030565446602494377,4.4113879123572406e-09,0
2024-02-06 10:41:48.199005,-2.5029819011688232,9.195945739746094,1.263455510139465,0,7.5083e-05,-1.0130139912426452e-05,-6.507164655072789e-10,0.0006927214257831574,2.6049202947414205e-08,0.0001752866202519535,6.362224180442974e-09,-15.226099545996234,82.17695919822202,153.21626335837445,9.613878315853327,5124.629541107575,105.22609954599623,7.823040801777971,-63.21626335837446,9.613878315853327,0.0007146264707615079,2.682279445986694e-08,0
2024-02-06 10:41:48.274945,-2.6513421535491943,9.882710456848145,1.3926725387573242,0,7.594e-05,-1.233876776987311e-05,-6.603443924491442e-10,0.000700896629963398,2.66463682843016e-08,0.00017642477112090577,6.512932511646243e-09,-15.017729214792082,81.97869175171591,152.28836661129768,10.32652497161031,9384.338369199137,105.01772921479208,8.021308248284093,-62.288366611297654,10.32652497161031,0.0007228651540565442,2.7438718763100652e-08,0
2024-02-06 10:41:48.348669,-2.5891265869140625,9.65299129486084,1.801859736442566,0,7.3724e-05,-6.5323284054398385e-06,-6.394352178868976e-10,0.0006792510724225045,2.5117164630058025e-08,0.0001728852293599843,6.1258970311134185e-09,-15.01448275359787,79.42665996262548,145.164652903589,10.155319587858243,-2322.2476229188196,105.01448275359787,10.573340037374532,-55.164652903589,10.155319587858243,0.0007009379382173385,2.586131185549403e-08,0
2024-02-06 10:41:48.438705,-2.373764753341675,9.27969741821289,2.1129379272460938,0,9.0036e-05,-4.7009670176565633e-05,-1.0761237583217343e-09,0.0008336660815663338,3.745651693799099e-08,0.00020481431910502902,9.206414548394067e-09,-14.348686872490036,77.17274621982602,138.3270481253987,9.808774131469706,-3848.965484789824,104.34868687249003,12.827253780173978,-48.3270481253987,9.808774131469706,0.0008597429557459202,3.858635474239712e-08,0
2024-02-06 10:41:48.514189,-2.017221450805664,9.514202117919922,1.4836030006408691,0,7.5484e-05,-1.5060854555189586e-05,-6.244986203734831e-10,0.0006969216685414314,2.6319960468206885e-08,0.00017864588731372345,6.4163580864912234e-09,-11.970700089927332,81.13692508976241,143.6666863909654,9.838206248383544,389.9119934534274,101.97070008992733,8.863074910237588,-53.666686390965396,9.838206248383544,0.0007196116970120851,2.7097969825595846e-08,0
2024-02-06 10:41:48.589287,-1.6774286031723022,9.282090187072754,1.7827165126800537,0,7.509799999999999e-05,-1.4347787094771828e-05,-6.188227525350405e-10,0.0006932939841265678,2.6051648847241957e-08,0.00017801548764765252,6.347522441123677e-09,-10.243743290568041,79.12816946422653,133.25709852766602,9.599429312426599,-3179.537883258481,100.24374329056805,10.87183053577347,-43.25709852766602,9.599429312426599,0.0007159273156285057,2.6820931945024336e-08,0
2024-02-06 10:41:48.663694,-2.3976938724517822,9.090658187866213,1.6654640436172483,0,7.4407e-05,-1.2939832279443711e-05,-6.09394880041249e-10,0.0006869461995630264,2.5574775863777204e-08,0.0001768241412654518,6.2249253493342e-09,-14.775479257516977,79.61819515706483,145.21573898720604,9.547919808795722,-692.2669054104696,104.77547925751698,10.381804842935175,-55.21573898720601,9.547919808795722,0.0007094570440046176,2.6328505810376804e-08,0
2024-02-06 10:41:48.738557,-1.8640754222869875,9.959283828735352,1.4094228744506836,0,7.4863e-05,-1.3911515678644173e-05,-6.155169873756932e-10,0.0006912895863428116,2.5889013622963744e-08,0.0001775252154827713,6.305717002672797e-09,-10.601367979671013,81.9450764983459,142.907162816682,10.229789069199263,9108.227834892286,100.60136797967102,8.054923501654102,-52.90716281668198,10.229789069199263,0.0007138557449419997,2.665299147280746e-08,0
2024-02-06 10:41:48.813600,-1.5099250078201294,8.808294296264648,1.1509888172149658,0,7.504299999999999e-05,-1.4215175717353793e-05,-6.180483896013329e-10,0.0006929786683740615,2.6013597765888254e-08,0.0001777556525350212,6.337692280794396e-09,-9.7271469590021,82.55528334640265,142.6823747866928,9.01058806050986,-16246.698675284877,99.7271469590021,7.444716653597356,-52.68237478669279,9.01058806050986,0.0007155547344894827,2.6781627956182127e-08,0
2024-02-06 10:41:48.904276,0.3182567656040191,11.70849895477295,0.4450809061527252,0,9.067600000000001e-05,-2.352985053263603e-05,-9.130823872843787e-10,0.0008533481828207971,3.810046159825288e-08,0.00019023133152772478,9.214062541720853e-09,1.557012615064818,87.8230356529871,54.433194669370046,11.721276899544423,29894.226024908043,88.44298738493518,2.1769643470129116,35.566805330629954,11.721276899544423,0.0008746111904637717,3.92094101201313e-08,0
2024-02-06 10:41:48.963789,0.6819788217544556,10.06935691833496,1.201239824295044,0,5.9513000000000004e-05,-3.911502133706211e-05,6.301868375332331e-11,0.0005140165215339661,1.6794868457349134e-08,0.00016457918506625286,3.6855824774117894e-09,3.8746194202440147,83.19696086584331,60.41516102741127,10.163661789808538,-26172.686803486373,86.12538057975598,6.803039134156695,29.584838972588724,10.163661789808538,0.000541137022815062,1.7194624045089432e-08,0
2024-02-06 10:41:49.039100,0.9930568337440492,9.595561027526855,1.746822953224182,0,7.5311e-05,-2.588391469427943e-05,-4.504079119582433e-10,0.0006693497083883285,2.6142278307505335e-08,0.00018786593294587721,6.4695464645896036e-09,5.908578619293852,79.68257968611566,60.38206756300985,9.803690312221661,-4779.799466039178,84.09142138070615,10.317420313884353,29.61793243699016,9.803690312221661,0.0006956957797206089,2.6934673078611934e-08,0
2024-02-06 10:41:49.114278,0.6077986359596252,9.009299278259276,1.019378900527954,0,7.517799999999999e-05,-2.5990371583014728e-05,-4.4695827192080305e-10,0.0006681124851779937,2.605333707163317e-08,0.00018768198052260268,6.4445725283439485e-09,3.8595241637422384,83.54458551662175,59.1947397362153,9.08713519267536,-9531.446959832683,86.14047583625776,6.455414483378251,30.805260263784707,9.08713519267536,0.0006944597310705817,2.6842292363694633e-08,0
2024-02-06 10:41:49.204356,0.7609447836875916,9.18398094177246,0.7800880670547485,0,9.0078e-05,-1.5793233106642956e-05,-7.58246126858753e-10,0.0008036524228172302,3.70179856361976e-08,0.00020108800943109383,9.34090895349899e-09,4.736460586008079,85.1449456894958,45.71171288039916,9.248409608955603,1790.3862905508877,85.26353941399192,4.8550543105041974,44.288287119600845,9.248409608955603,0.0008285789222813507,3.818584525486094e-08,0
2024-02-06 10:41:49.279305,-0.2321120798587799,9.751100540161133,1.710929274559021,0,7.4949e-05,-1.9793588094756e-05,-4.890496178807706e-10,0.0006604179989471436,2.5943024930760993e-08,0.00018224470875045646,6.441188606814653e-09,-1.3635929129785371,80.04817691252822,97.7258266924105,9.90278328271856,8730.91934199197,91.36359291297853,9.95182308747178,-7.725826692410494,9.90278328271856,0.000685388104164752,2.6735157054997728e-08,0
2024-02-06 10:41:49.354273,0.2871489822864532,9.753493309020996,2.368978977203369,0,7.4968e-05,-1.979306524418294e-05,-4.894256910874905e-10,0.0006606032925887108,2.5955574633030583e-08,0.0001822834678788482,6.4446516244926316e-09,1.6863367147022217,76.34806393799013,83.08877251503344,10.041172623831192,1845.9788324702986,88.31366328529779,13.651936062009867,6.911227484966561,10.041172623831192,0.0006855769382591172,2.6748176135934814e-08,0
2024-02-06 10:41:49.429292,-0.1244312226772308,9.04519271850586,2.2086541652679443,0,7.501900000000001e-05,-1.9788915941312902e-05,-4.904350316077208e-10,0.0006610826590824128,2.59892776247982e-08,0.00018240019752398124,6.4539510579604044e-09,-0.7881461943298727,76.27803574677411,93.22452266079249,9.311774678644444,-9722.842815643355,90.78814619432988,13.721964253225892,-3.2245226607924806,9.311774678644444,0.0006860697598571106,2.6783139514209546e-08,0
2024-02-06 10:41:49.504261,-0.3924369215965271,8.966226577758789,2.0411505699157715,0,7.496899999999999e-05,-1.9775994237706053e-05,-4.89445908853245e-10,0.000660632373600006,2.595623474898113e-08,0.0001822939524056016,6.444833704212162e-09,-2.5061420986651943,77.17524745746657,100.88303573798078,9.203994862569607,-1437.6584464890407,92.50614209866521,12.824752542533444,-10.883035737980768,9.203994862569607,0.0006856072549792071,2.6748860931203364e-08,0
2024-02-06 10:41:49.579292,-0.0119645409286022,9.612311363220217,2.1799392700195312,0,7.503100000000001e-05,-1.9788530683044334e-05,-4.906724091257885e-10,0.0006612083082761765,2.5997211810119303e-08,0.00018242480619063962,6.456139985728649e-09,-0.07131659796402937,77.22224521147275,90.31446326290327,9.856409494065545,8695.267709292671,90.07131659796403,12.77775478852725,-0.31446326290326926,9.856409494065545,0.0006861973643156388,2.6791370342492902e-08,0
2024-02-06 10:41:49.653675,-0.5144752264022827,9.674527168273926,3.189746379852295,0,7.438300000000001e-05,-1.961796419842913e-05,-4.779047047841911e-10,0.0006549593725919725,2.5570773481518026e-08,0.00018068502804008117,6.338492399437895e-09,-3.0440267606897184,71.75231957166443,99.16234711304439,10.199786402471025,4616.335834874632,93.04402676068972,18.24768042833558,-9.162347113044383,10.199786402471025,0.0006797085578563845,2.6348991161858405e-08,0
2024-02-06 10:41:49.729266,-1.3519930839538574,13.242353439331056,1.770751953125,0,7.5591e-05,-2.0745311057884232e-05,-5.022841230390042e-10,0.0006688011684789658,2.637032484832487e-08,0.00018368116903319943,6.5585695824701555e-09,-5.829478788676874,82.38365643602678,127.36222384426644,13.428453834701825,42712.32596778453,95.82947878867688,7.616343563973231,-37.362223844266445,13.428453834701825,0.0006938761724883779,2.7178321451379953e-08,0
2024-02-06 10:41:49.804299,-1.1629533767700195,7.147616386413574,-2.055508136749268,0,7.5033e-05,-2.0043640995342265e-05,-4.909040054161539e-10,0.000663112366897583,2.599872097195481e-08,0.00018376061600843061,6.45605332444354e-09,-9.241332862872992,106.04415188334755,-119.50005970668605,7.527681865229898,-78642.35695589845,99.241332862873,-16.04415188334755,-150.49994029331395,7.527681865229898,0.0006883950338814646,2.6792818131882933e-08,0
2024-02-06 10:41:49.879349,-1.7875022888183594,10.933197021484377,1.4357448816299438,0,7.505000000000001e-05,-2.0068719868499783e-05,-4.912449604834968e-10,0.0006632660538115503,2.6009995188530844e-08,0.0001837553480207621,6.45917721013779e-09,-9.28531415434891,82.51874008816381,141.2281205146067,11.171003755627885,48545.26169750815,99.28531415434891,7.4812599118362,-51.228120514606694,11.171003755627885,0.0006885424021671709,2.6804517185552168e-08,0
2024-02-06 10:41:49.969298,-1.2443121671676636,8.899225234985352,2.9121692180633545,0,8.9949e-05,-4.265422165836765e-05,-9.584995133878957e-10,0.0008110076834111214,3.699259739397113e-08,0.00021614513410642732,9.438235851744287e-09,-7.959637208841703,71.87991053579672,113.1360580037617,9.445911925642612,-19178.554847583324,97.9596372088417,18.120089464203275,-23.136058003761704,9.445911925642612,0.0008403996455110153,3.81896750347886e-08,0
2024-02-06 10:41:50.044250,-1.0839873552322388,8.590539932250977,2.053115129470825,0,7.495200000000001e-05,-2.519546768965199e-05,-4.4972861781177073e-10,0.0006798606793045999,2.58133209761473e-08,0.0001789129494264423,6.475892812373065e-09,-7.191792356636136,76.55860516451116,117.83280056960223,8.898746352647883,-7300.213109653226,97.19179235663614,13.441394835488838,-27.83280056960222,8.898746352647883,0.0007034594503801062,2.6617043099574947e-08,0
2024-02-06 10:41:50.118978,-1.1581674814224243,9.038013458251951,2.1057591438293457,0,7.472800000000001e-05,-2.4944346347946664e-05,-4.441129586395596e-10,0.0006778862813248635,2.5661253316556798e-08,0.00017844715550783267,6.435868480620426e-09,-7.302315531348763,76.88468072422047,118.81079274686535,9.352072538126972,6066.349768213904,97.30231553134877,13.115319275779523,-28.810792746865353,9.352072538126972,0.0007014238505582876,2.6459734715154882e-08,0
2024-02-06 10:41:50.194358,-0.8805902004241943,9.030835151672363,2.7805593013763428,0,7.538e-05,-2.5608981352228656e-05,-4.605933434698166e-10,0.0006837767259716988,2.610515545693547e-08,0.0001800400953209697,6.552735324390615e-09,-5.5692635679327145,72.88660286405282,107.57275240616167,9.490149243622822,1831.7419142458218,95.56926356793271,17.1133971359472,-17.57275240616167,9.490149243622822,0.0007075456641303501,2.6918945519658326e-08,0
2024-02-06 10:41:50.268956,-1.148595929145813,9.40891456604004,3.273498296737671,0,7.459799999999999e-05,-2.4815569575566777e-05,-4.408773440570484e-10,0.0006765667838320731,2.5573261144602193e-08,0.0001776729588001071,6.4128695202292725e-09,-6.959961636222959,70.81647046161241,109.33480909190394,10.028097377779856,7211.294326349688,96.95996163622297,19.183529538387603,-19.334809091903928,10.028097377779856,0.0006999472164149375,2.6368749570012012e-08,0
2024-02-06 10:41:50.343770,-0.184253916144371,9.849209785461426,4.278519630432129,0,7.4814e-05,-2.4959517358858126e-05,-4.4625305344596663e-10,0.0006786466612620353,2.5719624196672366e-08,0.00017848857673624148,6.4513349660672e-09,-1.0717347585800556,66.51976150719393,92.46591196387924,10.739954056309399,9515.019629074008,91.07173475858006,23.480238492806055,-2.4659119638792246,10.739954056309399,0.0007021698087886035,2.6520142032993823e-08,0
2024-02-06 10:41:50.419284,-1.770751953125,12.187081336975098,3.98419189453125,0,7.5514e-05,-2.5643769413102395e-05,-4.6396420381615253e-10,0.000686359363154888,2.619737630521828e-08,0.0001813805257699786,6.577289151944375e-09,-8.267078725566734,71.89643334355483,113.96248897457819,12.943504125467387,29180.68264372153,98.26707872556673,18.103566656445164,-23.962488974578186,12.943504125467387,0.0007103841731265482,2.7014413201991268e-08,0
2024-02-06 10:41:50.494153,0.4785816073417663,7.03993558883667,1.1509888172149658,0,7.4869e-05,-2.5227044476587307e-05,-4.475583663367278e-10,0.0006801586501963138,2.5756674245912523e-08,0.00017972442999044047,6.460832803711642e-09,3.8890387363758157,80.71462310963538,67.42243939441262,7.149441146495916,-77389.34644474309,86.11096126362419,9.285376890364626,22.577560605587376,7.149441146495916,0.0007039552996783845,2.6558406149820963e-08,0
2024-02-06 10:41:50.569129,-0.0143574485555291,9.648205757141112,1.5290682315826416,0,7.4976e-05,-2.5202208484092244e-05,-4.502563313701239e-10,0.0006810514657583235,2.582949898711609e-08,0.00017986781304255112,6.480070988713905e-09,-0.08526151082426353,80.99453966136275,90.53797274403732,9.768629900108571,34933.69549739457,90.08526151082427,9.005460338637246,-0.5379727440373145,9.768629900108571,0.0007048536589198829,2.6633758065810795e-08,0
2024-02-06 10:41:50.643544,-0.4283305406570434,9.806137084960938,3.1586387157440186,0,7.4415e-05,-2.507803450311812e-05,-4.3615272321221147e-10,0.0006755945225911139,2.5448959787384075e-08,0.000178552911243826,6.379533975551577e-09,-2.501080906230926,72.14581641121772,97.72254798811528,10.311197317368277,7291.102832220734,92.50108090623094,17.854183588782274,-7.722547988115281,10.311197317368277,0.0006992410234556467,2.624001214182406e-08,0
2024-02-06 10:41:50.733972,0.1770751923322677,7.817630767822266,2.340264081954956,0,9.0428e-05,-2.7089710449480436e-05,-8.538337731751917e-10,0.0008166992199044225,3.7397009636674585e-08,0.00022257987649360283,9.5912036405713e-09,1.2975704421706522,73.33455031548526,85.67298163714658,8.162324572021706,-23763.35587811929,88.70242955782935,16.665449684514748,4.327018362853427,8.162324572021706,0.0008469198720213362,3.8616791026089347e-08,0
2024-02-06 10:41:50.809268,0.1603248417377472,8.920761108398438,3.1442811489105225,0,7.5296e-05,-2.9642479107254167e-05,-4.2459802698893795e-10,0.0006900565469689368,2.5996895504510757e-08,0.00018108380727687465,6.537084209163869e-09,1.0296148337797195,70.58408628279507,87.0810535498363,9.460031012178893,17234.732790017886,88.97038516622028,19.415913717204926,2.9189464501637055,9.460031012178893,0.0007140364555400548,2.6809556678816496e-08,0
2024-02-06 10:41:50.883947,-0.0263219885528087,9.377806663513184,3.5510756969451904,0,7.4679e-05,-2.968381898746172e-05,-4.0629586402671775e-10,0.000684411438811302,2.5572872130897546e-08,0.00017901828968992813,6.425992712249608e-09,-0.16081957605390318,69.25992451288853,90.42469137838698,10.027666192626697,7601.001358451553,90.16081957605391,20.740075487111472,-0.42469137838697285,10.027666192626697,0.0007080591039799884,2.6371011502978923e-08,0
2024-02-06 10:41:50.959269,-0.9930568337440492,8.87051010131836,3.5223608016967773,0,7.5322e-05,-3.001154927883016e-05,-4.254879249243306e-10,0.0006902782726511954,2.6014834873132737e-08,0.00018129239952424151,6.5418325988319634e-09,-6.387686592110463,68.34263564810209,105.74470121510993,9.595787458565699,-5733.766151469664,96.38768659211047,21.65736435189792,-15.744701215109925,9.595787458565699,0.0007143190610012383,2.6828124183434074e-08,0
2024-02-06 10:41:51.033743,-0.6030128598213196,9.377806663513184,3.393143653869629,0,7.447399999999999e-05,-2.9334815728758444e-05,-4.0032506616111295e-10,0.0006825409863429068,2.5432759507319236e-08,0.00017836022563508136,6.38933988576441e-09,-3.6791748939063145,70.10850820939642,100.07711673485763,9.991011269292908,5306.86965554703,93.67917489390632,19.891491790603588,-10.077116734857613,9.991011269292908,0.0007060701803223143,2.6226116382178166e-08,0
2024-02-06 10:41:51.108976,-1.299349069595337,11.63192653656006,3.6156840324401855,0,7.523299999999999e-05,-3.0056762080972063e-05,-4.228641699399056e-10,0.0006905141800923345,2.5953833942981407e-08,0.00018102007574203593,6.5257247101370255e-09,-6.373824853318876,72.73259361592375,109.76664409160945,12.250028325641997,30026.94371285326,96.37382485331888,17.267406384076263,-19.76664409160944,12.250028325641997,0.0007144798875245081,2.676500314661976e-08,0
2024-02-06 10:41:51.183696,-1.2132043838500977,10.57186794281006,2.395301103591919,0,7.471999999999999e-05,-2.941229212016331e-05,-4.0761035753731437e-10,0.0006848189068083761,2.5601061006191376e-08,0.00017947825805464369,6.4332568875181775e-09,-6.546500525979428,77.23385545006643,116.86191648869858,10.907507692139244,-17967.353232103225,96.54650052597944,12.766144549933571,-26.861916488698593,10.907507692139244,0.000708558016794892,2.640013759485174e-08,0
2024-02-06 10:41:51.258928,-1.6582852602005005,7.817630767822266,0.0717872455716133,0,7.523199999999999e-05,-3.014739346904026e-05,-4.228576370481504e-10,0.000689526618478298,2.5952893460664764e-08,0.00018010983267202955,6.525311438744206e-09,-11.97613206417105,89.47388272575418,177.52121072346188,7.99189678579662,-38754.93016725097,101.97613206417105,0.526117274245817,-87.52121072346188,7.99189678579662,0.0007132989378572212,2.67639903029132e-08,0
2024-02-06 10:41:51.333767,-1.7324655055999756,10.038249015808104,2.380943536758423,0,7.4839e-05,-2.94811109435605e-05,-4.1114063593107494e-10,0.0006860179381008147,2.5682598955296983e-08,0.00017962787107330173,6.454622979958251e-09,-9.792012264560054,76.65675138514185,126.04106749520933,10.461203188768385,32994.91445598905,99.79201226456006,13.343248614858155,-36.04106749520932,10.461203188768385,0.0007097576483313769,2.648446872290514e-08,0
2024-02-06 10:41:51.409280,-1.4883887767791748,8.813080787658691,2.167974710464477,0,7.5513e-05,-3.056653883672225e-05,-4.3137669390702984e-10,0.0006923708362445829,2.6147115972251372e-08,0.0001811608565226158,6.576208781158073e-09,-9.58589059839383,76.17992507478442,124.47093010474237,9.197054336354357,-16740.810885728657,99.58589059839383,13.820074925215582,-34.470930104742365,9.197054336354357,0.0007163315881032245,2.6964871248566893e-08,0
2024-02-06 10:41:51.499090,-0.9284483194351196,9.01169204711914,2.8260245323181152,0,8.981e-05,-4.784329881901014e-05,-9.91889418389033e-10,0.0008197912248539922,3.695680646601454e-08,0.00021686046010964717,9.421464163103805e-09,-5.882262876024653,72.58881890544555,108.18716825174243,9.489943334458646,3261.206971431785,95.88226287602465,17.411181094554465,-18.18716825174243,9.489943334458646,0.0008493380320864372,3.815171524009655e-08,0
2024-02-06 10:41:51.574305,-1.296956181526184,8.781972885131836,2.72552227973938,0,7.5215e-05,-3.160340947324504e-05,-4.1212706462630116e-10,0.0006899419550108908,2.5939528585950564e-08,0.00017634804724865762,6.552025080656578e-09,-8.400940200222369,72.75805012146981,115.44772218650623,9.286205618515321,-2708.737830796044,98.40094020022237,17.241949878530193,-25.447722186506212,9.286205618515321,0.0007128234778281356,2.6757391962526854e-08,0
2024-02-06 10:41:51.649609,-1.098344802856445,8.68147087097168,2.938491106033325,0,7.5304e-05,-3.171000036705006e-05,-4.14944511364194e-10,0.0006907190782580373,2.6000968001931025e-08,0.00017660009584432448,6.567731273024214e-09,-7.21052334142159,71.30014604433464,110.4946623918086,9.230873618987994,-734.7816786269968,97.21052334142159,18.69985395566536,-20.494662391808603,9.230873618987994,0.0007136427418849965,2.6820842829031543e-08,0
2024-02-06 10:41:51.724699,-1.3543859720230105,9.641026496887209,3.54150390625,0,7.509e-05,-3.1447558174137965e-05,-4.0818665260028706e-10,0.0006887585710396765,2.5853363893456173e-08,0.0001759067363780102,6.5300130419764254e-09,-7.996666823210032,69.82985798858923,110.92847550146921,10.35982640746832,15034.662251702308,97.99666682321003,20.170142011410785,-20.92847550146921,10.35982640746832,0.0007115620127570721,2.666841036280953e-08,0
2024-02-06 10:41:51.799744,-1.7875022888183594,9.664956092834473,4.903068542480469,0,7.5045e-05,-3.137686568826903e-05,-4.067731030633828e-10,0.0006883241864314078,2.5822379531413072e-08,0.00017571673349791374,6.522101513904217e-09,-10.478268485168236,63.10114822410821,110.03024130576532,10.983925611602194,8316.332922031761,100.47826848516824,26.898851775891792,-20.03024130576532,10.983925611602194,0.0007110914594889014,2.6636414120136146e-08,0
2024-02-06 10:41:51.874742,-1.2275618314743042,11.308883666992188,4.422094345092773,0,7.499799999999999e-05,-3.130601168144214e-05,-4.053000554451943e-10,0.0006878313011970518,2.57900398774538e-08,0.00017549759217005574,6.513847977251018e-09,-6.195112380635196,68.64309171235567,105.51451524928531,12.204617005074624,16276.319281479911,96.19511238063521,21.35690828764434,-15.514515249285301,12.204617005074624,0.0007105570843579811,2.6603019386647415e-08,0
2024-02-06 10:41:51.949313,1.2849916219711304,8.145459175109863,1.079201579093933,0,7.4571e-05,-3.131827294171321e-05,-3.91929770678151e-10,0.0006836777990002631,2.549722268456168e-08,0.0001743230654902419,6.439161266840546e-09,8.964847188733419,82.45277029425137,40.02525568801742,8.316512772204241,-52139.62844631804,81.03515281126658,7.5472297057486415,49.97474431198259,8.316512772204241,0.000706246910243019,2.6300661044765588e-08,0
2024-02-06 10:41:52.024243,0.7681235074996948,8.518753051757812,1.0098072290420532,0,7.493e-05,-3.0949738775973195e-05,-4.0310687878147577e-10,0.0006866690250949859,2.5743199939486777e-08,0.00017469804257130232,6.501810555737594e-09,5.1523433353753685,83.23974331579517,52.74107628776093,8.612716059375943,3953.0666912011443,84.84765666462464,6.760256684204844,37.258923712239074,8.612716059375943,0.0007092190369931168,2.655463008182968e-08,0
2024-02-06 10:41:52.099304,0.9786993861198424,10.753728866577148,2.184725046157837,0,7.5061e-05,-3.0835321876441115e-05,-4.07153800254209e-10,0.0006879313726606369,2.5833236265539773e-08,0.0001749072844353279,6.524709704656529e-09,5.200176456537348,78.5160956130043,65.8688748960932,11.016966939750494,32030.62682850683,84.79982354346265,11.483904386995706,24.1311251039068,11.016966939750494,0.0007104878244660583,2.6647583509547348e-08,0
2024-02-06 10:41:52.174250,1.1629533767700195,9.84203052520752,2.471873998641968,0,7.4946e-05,-3.095846691030729e-05,-4.036006573989707e-10,0.0006867471164956092,2.5754192252413282e-08,0.00017463952999025191,6.504610762827056e-09,6.738932597272936,75.90149604628361,64.80421749200822,10.21411701914657,-10712.378520587143,83.26106740272706,14.098503953716401,25.195782507991783,10.21411701914657,0.0007092806173325805,2.6565979621327778e-08,0
2024-02-06 10:41:52.264349,0.6436922550201416,8.413464546203613,1.916719436645508,0,9.009899999999999e-05,-1.7270416281049137e-05,-7.690067908982826e-10,0.0008250598749041556,3.72083979227536e-08,0.00020788970815270748,9.402843535617187e-09,4.375027880558549,77.16615457338179,71.43639428522502,8.65300749960456,-17326.602065972,85.62497211944145,12.833845426618211,18.56360571477499,8.65300749960456,0.0008510230286021638,3.8385800942245816e-08,0
2024-02-06 10:41:52.339304,0.4642241597175598,9.317984580993652,1.9621846675872805,0,7.495499999999999e-05,-2.565955937344301e-05,-4.4394101524246793e-10,0.0006907973421130179,2.5730327075499558e-08,0.0001785186462754568,6.476959475887127e-09,2.8521309096043312,78.108376197353,76.68939879236993,9.533651419672083,11748.968315222783,87.14786909039567,11.891623802647011,13.310601207630064,9.533651419672083,0.0007139525810063794,2.653672585473732e-08,0
2024-02-06 10:41:52.414111,-0.363722026348114,10.60058307647705,2.1392598152160645,0,7.4807e-05,-2.566699653131235e-05,-4.401428501055164e-10,0.0006893233681063652,2.5628198142943334e-08,0.00017821513938372937,6.45056117574835e-09,-1.9651338591530203,78.59061339161556,99.64929108276603,10.820401463473557,17200.930979740853,91.96513385915303,11.409386608384452,-9.649291082766025,10.820401463473557,0.0007124507957985617,2.6431193791891713e-08,0
2024-02-06 10:41:52.489258,-0.7705163955688477,8.60250473022461,1.560176134109497,0,7.5147e-05,-2.585981706303823e-05,-4.48902408416556e-10,0.0006925878930335045,2.5863123057337114e-08,0.0001788440434951147,6.511261236837753e-09,-5.118258629939039,79.72040054627439,116.28315425312904,8.776726765646863,-27195.692413891353,95.11825862993904,10.279599453725606,-26.28315425312903,8.776726765646863,0.0007157736455114881,2.6673941788674408e-08,0
2024-02-06 10:41:52.564275,-0.2871489822864532,9.169623374938965,1.825788855552673,0,7.5017e-05,-2.5791068813477636e-05,-4.455451008345825e-10,0.0006914327047066688,2.5773161718484e-08,0.00017862395577078667,6.488025816885469e-09,-1.793645090228488,78.73895674496039,98.93791869932868,9.35403401326484,7695.685612834118,91.7936450902285,11.261043255039608,-8.937918699328671,9.35403401326484,0.0007145984060601627,2.6580986708634034e-08,0
2024-02-06 10:41:52.639071,-0.8901618123054504,9.428057670593262,1.7300724983215332,0,7.479600000000001e-05,-2.5660975970675233e-05,-4.398596498859337e-10,0.0006893776609511376,2.5620582173078815e-08,0.00017823103309118357,6.448593340616222e-09,-5.393663195797174,79.60176308120424,117.22685493785228,9.626723759492004,3645.7798040959856,95.39366319579717,10.398236918795762,-27.226854937852277,9.626723759492004,0.0007125070850616011,2.6423324232043963e-08,0
2024-02-06 10:41:52.714270,-1.25866961479187,11.244275093078612,1.9262909889221191,0,7.5199e-05,-2.609396550323533e-05,-4.502882705929264e-10,0.0006935431360030174,2.589924071366507e-08,0.00017896779033386314,6.5205689035363675e-09,-6.38702696616634,80.27885185935789,123.16124874845893,11.477306676308292,24609.142632432453,96.38702696616633,9.721148140642114,-33.161248748458945,11.477306676308292,0.0007167373622949828,2.6711256950895544e-08,0
2024-02-06 10:41:52.789279,-1.1988469362258911,8.631219863891602,1.9813278913497925,0,7.5009e-05,-2.586050143088865e-05,-4.4535259623418475e-10,0.0006916549639821052,2.576764689416649e-08,0.00017859656654023733,6.486600289633329e-09,-7.9075951346120545,77.07152776720433,121.17697721596473,8.936489832611896,-33873.49309678033,97.90759513461207,12.928472232795677,-31.17697721596472,8.936489832611896,0.0007148091271908226,2.6575288309158407e-08,0
2024-02-06 10:41:52.864284,-1.3304568529129028,9.136122703552246,1.3639576435089111,0,7.5005e-05,-2.5855442823310378e-05,-4.452491643456765e-10,0.0006916194292969703,2.5764880345379935e-08,0.0001785898759691676,6.485885916748311e-09,-8.285511748486625,81.50886457723486,134.28765414015285,9.332697034893616,5282.410536387183,98.28551174848663,8.491135422765154,-44.28765414015285,9.332697034893616,0.0007147728888978228,2.6572429737514968e-08,0
2024-02-06 10:41:52.939250,-1.6367491483688354,10.031070709228516,1.7587873935699463,0,7.4966e-05,-2.5797582306285378e-05,-4.442419303556493e-10,0.0006912456690254211,2.5737914475962647e-08,0.00017852898244094458,6.478922099009313e-09,-9.267167893302414,80.05518939070367,132.94163075557267,10.314778739459657,13100.361558120216,99.26716789330243,9.944810609296328,-42.941630755572675,10.314778739459657,0.0007143939303848058,2.6544566751591274e-08,0
2024-02-06 10:41:53.029042,-0.3756865561008453,8.7843656539917,1.0552724599838257,0,8.9792e-05,-4.071576818351912e-05,-9.3730539753657e-10,0.0008307244987859725,3.7020279329948506e-08,0.00019938960813533867,9.2804326109513e-09,-2.4489127135806075,83.14984145837343,109.59619018740827,8.855496614886386,-16251.805556990275,92.44891271358061,6.850158541626572,-19.596190187408265,8.855496614886386,0.0008552877775897089,3.8177297606327145e-08,0
2024-02-06 10:41:53.104066,0.6963362693786621,10.296683311462402,1.8999689817428589,0,7.502399999999999e-05,-4.308344566636252e-05,-3.185320024690438e-10,0.0006898300332250594,2.579250466557904e-08,0.00017756810532962883,6.496976854725979e-09,3.868864573858496,79.54524159636229,69.8721774282072,10.493638718203783,21834.90754048568,86.13113542614151,10.454758403637713,20.12782257179281,10.493638718203783,0.0007136190090378248,2.6600102778210438e-08,0
2024-02-06 10:41:53.179278,0.8470894694328308,10.715442657470703,3.046171903610229,0,7.5212e-05,-4.293836364691423e-05,-3.266180525444921e-10,0.0006918051730661392,2.5922378374970418e-08,0.00017803304257285203,6.530403362628814e-09,4.520011565018786,74.13067914538658,74.4596402498961,11.172172357295208,9021.614092052132,85.47998843498121,15.869320854613422,15.540359750103915,11.172172357295208,0.0007156352875602854,2.6734295353459677e-08,0
2024-02-06 10:41:53.254309,1.110309362411499,9.0284423828125,2.58673357963562,0,7.503100000000001e-05,-4.3115508241196134e-05,-3.1883017713861853e-10,0.0006900183514699937,2.5797323345999906e-08,0.00017752326462661832,6.498225516827264e-09,7.010978237778454,74.01249467739112,66.76943214069277,9.4571004727685,-22858.177080496163,82.98902176222154,15.987505322608882,23.23056785930722,9.4571004727685,0.0007137918337302247,2.6605083712844637e-08,0
2024-02-06 10:41:53.344287,1.0145930051803589,9.23662567138672,2.754237174987793,0,8.9978e-05,-2.7235050396998396e-05,-8.445950771211649e-10,0.0008265223375730514,3.71311901855631e-08,0.00021743900956129638,9.449976072970642e-09,6.268498284480896,73.3961292553043,69.77744765139566,9.691773582557829,2608.1165372572036,83.73150171551912,16.603870744695712,20.22255234860435,9.691773582557829,0.0008550793210903569,3.8324152609294207e-08,0
2024-02-06 10:41:53.404283,0.5862624645233154,8.662327766418457,2.115330696105957,0,5.9996e-05,-5.1233474743326176e-05,3.317265832574407e-10,0.000558199126586914,1.6372830716341057e-08,0.00014443931760572997,4.02505807040975e-09,3.871848210929362,76.27700920712577,74.50932301504311,8.936120520900625,-12595.057364777726,86.12815178907064,13.722990792874233,15.490676984956892,8.936120520900625,0.0005788556385896899,1.686359157066405e-08,0
2024-02-06 10:41:53.479233,0.8638398051261902,9.13133716583252,2.7853450775146484,0,7.495e-05,-4.039106007315682e-05,-3.533500635654029e-10,0.0006912423592853546,2.5714904706208014e-08,0.00018108167036509125,6.4589784974675815e-09,5.404193528079519,73.03664518357668,72.76937952026263,9.585702105003566,8666.86569850489,84.59580647192048,16.96335481642332,17.230620479737375,9.585702105003566,0.0007157080468643819,2.651602503294054e-08,0
2024-02-06 10:41:53.554215,1.177310824394226,9.176802635192873,2.940884113311768,0,7.4982e-05,-4.03584016630845e-05,-3.546420549531823e-10,0.000691535289522171,2.5737029148588925e-08,0.00018117329003214443,6.4647745768339355e-09,7.310659208646112,72.23093707510799,68.18251624676071,9.708170103085761,1633.2986327677977,82.6893407913539,17.76906292489202,21.81748375323929,9.708170103085761,0.000716012303148754,2.6538910126675056e-08,0
2024-02-06 10:41:53.628553,1.1916682720184326,9.01169204711914,2.622627258300781,0,7.4338e-05,-4.112121293212937e-05,-3.2840561905352385e-10,0.0006856785942344665,2.5293566278019297e-08,0.00017938183937048522,6.3486758251662906e-09,7.53284867086173,73.77368602509968,65.56392224294044,9.460911190716676,-3326.144264966579,82.46715132913826,16.22631397490033,24.436077757059564,9.460911190716676,0.0007099464296975529,2.6080222967686296e-08,0
2024-02-06 10:41:53.703556,0.8805902004241943,9.03562068939209,2.620234251022339,0,7.5003e-05,-4.04321869900422e-05,-3.555221245276457e-10,0.0006916793257193565,2.575153778640394e-08,0.00018112509082233514,6.468544379455402e-09,5.566332447290002,73.82840103876427,71.42388905319896,9.448995072169533,-158.87522561954893,84.43366755270999,16.171598961235734,18.576110946801048,9.448995072169533,0.0007161433864093004,2.655391046031832e-08,0
2024-02-06 10:41:53.793564,0.5360113978385925,9.198338508605955,3.0748867988586426,0,9.000800000000001e-05,-2.9804133499075633e-05,-8.824701189972524e-10,0.000828479604602337,3.7156530161142455e-08,0.00022385273649906722,9.506890528934225e-09,3.3350044139125936,71.51587812451159,80.1116141359137,9.713478695262129,2938.445728075242,86.66499558608741,18.48412187548842,9.888385864086302,9.713478695262129,0.0008587064627995972,3.836362150079097e-08,0
2024-02-06 10:41:53.869242,-0.0693943351507186,9.564454078674316,3.26392674446106,0,7.567799999999999e-05,-3.3147444753234254e-05,-4.3142206081945146e-10,0.0006940441957144736,2.624764713187249e-08,0.0001784351374611815,6.62449791200904e-09,-0.41569887086779755,71.15748814622579,91.21798186943353,10.106276029776199,5190.376787363166,90.4156988708678,18.84251185377421,-1.217981869433531,10.106276029776199,0.0007173807893855326,2.707414038413903e-08,0
2024-02-06 10:41:53.959264,-0.600619912147522,9.059550285339355,3.1849606037139893,0,9.0022e-05,-3.795278693485724e-05,-9.413529224864442e-10,0.0008276155550131798,3.7160990864091226e-08,0.000224686557522293,9.51568670843052e-09,-3.792980813332483,70.63044928518167,100.67942215969346,9.621858952337156,-5381.0965923778895,93.79298081333248,19.369550714818338,-10.67942215969346,9.621858952337156,0.0008584124708245535,3.837152174280747e-08,0
2024-02-06 10:41:54.018526,-1.557783126831055,8.564218521118164,2.859525203704834,0,5.9262e-05,-4.756548195366739e-06,-2.8448334818359944e-10,0.0005565619907698632,1.5872340209948025e-08,0.0001317223658041915,4.034117467669189e-09,-10.309071948674239,71.53624074749082,118.58021641737403,9.162391147420312,-7753.160624292875,100.30907194867424,18.46375925250918,-28.58021641737402,9.162391147420312,0.0005719568654833172,1.637944499238849e-08,0
2024-02-06 10:41:54.108515,-1.170132040977478,9.265339851379396,2.706378936767578,0,8.9989e-05,-4.666687287599312e-05,-1.0745270778134364e-09,0.0008304864108257294,3.718225832786191e-08,0.00021723413406633937,9.39531065343009e-09,-7.1978539040421365,73.71706920754966,113.38176114372055,9.723179444207563,6231.742732859031,97.19785390404215,16.28293079245034,-23.381761143720553,9.723179444207563,0.00085969537895337,3.836595893595346e-08,0
2024-02-06 10:41:54.169276,-1.4524952173233032,9.047585487365724,2.663306713104248,0,6.0761e-05,-8.339798123185511e-06,-2.7065958783144005e-10,0.0005628613199253083,1.681987459066625e-08,0.00013876154797911252,4.192789756017856e-09,-9.120416148909486,73.59733380755145,118.60685278526961,9.542627948086633,-2971.503038477485,99.1204161489095,16.402666192448553,-28.606852785269616,9.542627948086633,0.0005797733909885441,1.7336692989044754e-08,0
2024-02-06 10:41:54.259264,-1.6391420364379885,9.430450439453123,2.988742113113404,0,8.998799999999999e-05,-5.351943913102613e-05,-1.1746395514458615e-09,0.0008328900979418754,3.721668793566833e-08,0.00022135776350104417,9.455393314333123e-09,-9.860285252533043,72.41530852184526,118.74207122003257,10.027599988297162,5389.296797467764,99.86028525253305,17.58469147815475,-28.742071220032564,10.027599988297162,0.0008634636674908277,3.8417002768376885e-08,0
2024-02-06 10:41:54.319232,-1.651106595993042,8.590539932250977,2.837989091873169,0,5.9968e-05,-4.132807158236381e-06,-3.0927933464403133e-10,0.0005623950324625969,1.6273458128297205e-08,0.00013389852811419574,4.122996377188373e-09,-10.879607684060748,71.71840103908187,120.19030985038603,9.196614127194934,-13857.15483428208,100.87960768406074,18.281598960918135,-30.190309850386022,9.196614127194934,0.0005781298024360625,1.6790479215513436e-08,0
2024-02-06 10:41:54.394243,-1.718108057975769,8.978191375732422,2.550840139389038,0,7.501099999999999e-05,-2.947435517806278e-05,-5.620556061565053e-10,0.0006945382449955939,2.572748177469898e-08,0.0001744306071771344,6.442093968282112e-09,-10.833410169603278,74.13934885907793,123.96207780768232,9.490342517258036,3915.804216222976,100.83341016960328,15.860651140922075,-33.9620778076823,9.490342517258036,0.000716713435129345,2.6527717573663532e-08,0
2024-02-06 10:41:54.469282,-1.462066888809204,8.985369682312012,3.141888380050659,0,7.5039e-05,-2.951887762731778e-05,-5.628815114157809e-10,0.0006947897348504066,2.574693236641683e-08,0.0001745103053764066,6.446979141057863e-09,-9.24196491700187,70.72694650793956,114.95475085766054,9.630470939048694,1867.4079050981252,99.24196491700187,19.27305349206045,-24.95475085766054,9.630470939048694,0.0007169783723882064,2.6547785254555068e-08,0
2024-02-06 10:41:54.559245,-1.2275618314743042,8.971012115478516,2.739879846572876,0,8.9963e-05,-4.958888713807333e-05,-1.1531836520951297e-09,0.0008287802558255195,3.71158116368406e-08,0.00021840005988347144,9.378876286627075e-09,-7.791762397966724,73.01655318221643,114.13404561694846,9.460069132929794,-1894.1321000733597,97.79176239796674,16.983446817783573,-24.13404561694845,9.460069132929794,0.0008585070508335444,3.829982540948127e-08,0
2024-02-06 10:41:54.633957,-1.7635732889175415,8.930333137512207,2.6896286010742188,0,7.4712e-05,-2.67799862775253e-05,-5.70832807864482e-10,0.0006922735475988386,2.551701585882815e-08,0.0001769973432159385,6.363773389292523e-09,-11.171101900884382,73.23880302897018,123.25261470501651,9.491846116749286,425.32637085732335,101.17110190088438,16.76119697102982,-33.252614705016505,9.491846116749286,0.0007150439789800392,2.6304782078255074e-08,0
2024-02-06 10:41:54.709244,-1.0409150123596191,8.839402198791504,2.467088222503662,0,7.528700000000001e-05,-2.7586276664142503e-05,-5.864631084602118e-10,0.0006973823465080261,2.5916541928383883e-08,0.00017847989930271717,6.465973096516639e-09,-6.71613638342879,74.40551547002667,112.87587657577144,9.236073819138301,-3397.296978375882,96.71613638342879,15.594484529973334,-22.87587657577144,9.236073819138301,0.000720387544545531,2.6717408043972784e-08,0
2024-02-06 10:41:54.784023,-1.0098072290420532,8.265104293823242,2.4072654247283936,0,7.4779e-05,-2.7065393214826462e-05,-5.725815843109533e-10,0.0006930378018589018,2.556337521069867e-08,0.00017724181347632018,6.375619781470761e-09,-6.965714624733032,73.76145554801928,112.75722715354856,8.667559428852725,-7602.594181328672,96.96571462473304,16.238544451980722,-22.757227153548552,8.667559428852725,0.0007158551464924077,2.6352656971006483e-08,0
2024-02-06 10:41:54.859252,-1.1509888172149658,7.166759967803955,1.0289504528045654,0,7.522900000000001e-05,-2.7551572325234305e-05,-5.848704015574672e-10,0.0006965099713177681,2.587602345966343e-08,0.0001780149620487651,6.455552555963907e-09,-9.123849003761855,81.82972814459181,138.20421414110012,7.331163804458196,-17764.3677889448,99.12384900376185,8.170271855408185,-48.204214141100124,7.331163804458196,0.0007194265466299489,2.6675547272258208e-08,0
2024-02-06 10:41:54.934195,0.4283305406570434,6.757572650909424,-0.3062922358512878,0,7.494299999999999e-05,-2.7448232191686514e-05,-5.770054295115471e-10,0.0006945187917532919,2.5677106346544257e-08,0.00017791162192374078,6.404655054455836e-09,3.6268562267213595,92.59519952343709,-35.56794547428625,6.778057990171031,-7380.353258972356,86.37314377327864,-2.595199523437093,125.56794547428623,6.778057990171031,0.0007174693740951159,2.6470102605845637e-08,0
2024-02-06 10:41:55.009253,-0.4402951002120971,7.097365379333496,-1.208418607711792,1,7.5058e-05,-2.7448920153860928e-05,-5.801620157714163e-10,0.0006953154506900309,2.5757021815484752e-08,0.00017782452605023588,6.425109882964341e-09,-3.549875470197368,99.66268932012247,-110.01953698121648,7.2129557488242355,5794.155968094068,93.54987547019738,-9.662689320122468,-159.98046301878352,7.2129557488242355,0.0007182190343139653,2.655264201122117e-08,0
2024-02-06 10:41:55.084219,0.6341206431388855,9.798958778381348,-2.0004711151123047,1,7.4966e-05,-2.745783612883556e-05,-5.776363049824123e-10,0.0006945382197787761,2.5693088546643187e-08,0.0001779721349774858,6.408743236557066e-09,3.7026225955487635,101.53845793115723,-72.41213186684348,10.02115695979613,37459.66452754442,86.29737740445124,-11.538457931157222,162.41213186684348,10.02115695979613,0.0007175035556196178,2.6486608930525572e-08,0
2024-02-06 10:41:55.159233,0.7872667908668518,8.502002716064453,-4.534560680389404,1,7.5014e-05,-2.7423722830419422e-05,-5.789534623974344e-10,0.0006949774428546428,2.5726436922546386e-08,0.00017781529421439376,6.41728213485767e-09,5.290377323894058,118.07332237063929,-80.15078098685296,9.667785669330012,-4710.737868479457,84.70962267610595,-28.07332237063928,170.15078098685296,9.667785669330012,0.0007178885606465737,2.652105303037086e-08,0
2024-02-06 10:41:55.234202,-0.339792937040329,8.444572448730469,-4.256983280181885,1,7.496899999999999e-05,-2.743379099213052e-05,-5.77719168336427e-10,0.0006945961449134349,2.56951715168216e-08,0.00017801310395350664,6.4092759958988914e-09,-2.3042260888804518,116.75307498047093,-94.56368056791595,9.462989471074577,-2731.745098046328,92.30422608888045,-26.753074980470913,-175.43631943208405,9.462989471074577,0.0007175688695839357,2.6488760210850736e-08,0
2024-02-06 10:41:55.308520,0.8279461860656738,8.50678825378418,-5.769301414489746,1,7.431799999999999e-05,-2.759268487468827e-05,-5.598080504417773e-10,0.0006890784770047663,2.5244785427387222e-08,0.0001812766596216223,6.292327177855186e-09,5.558958154958175,124.14510941180434,-81.83330407507769,10.311924170249439,11423.002491655616,84.44104184504182,-34.14510941180433,171.83330407507768,10.311924170249439,0.000713058013806293,2.6023181159138418e-08,0
2024-02-06 10:41:55.399214,-0.7202653288841248,7.595090389251709,-6.690570831298828,1,9.0694e-05,-2.6710994016085744e-05,-1.0044465731994351e-09,0.0008209206593339442,3.760865835572859e-08,7.925522567310539e-05,8.425562254648417e-09,-5.4173304489057,131.37706208188757,-96.14444423401181,10.147310885822062,-1815.0405145585914,95.4173304489057,-41.37706208188759,-173.85555576598819,10.147310885822062,0.000825170041215203,3.855399065652325e-08,0
2024-02-06 10:41:55.474225,-0.7011220455169678,6.29334831237793,-7.831988334655762,1,7.501099999999999e-05,-1.5565184919719573e-05,-6.729379160743176e-10,0.0007120144672551153,2.5588147560580478e-08,0.00019313387337293835,6.2896231344788634e-09,-6.35692855820853,141.21658604270002,-95.11550017203716,10.071635734964007,-1008.8540461806313,96.35692855820854,-51.21658604270003,-174.88449982796286,10.071635734964007,0.0007379075616946915,2.6358404735391384e-08,0
2024-02-06 10:41:55.549291,-3.414679765701294,6.712107181549072,-8.370392799377441,1,7.506599999999999e-05,-1.5678369469528073e-05,-6.73797113820022e-10,0.0007123721172811983,2.5627318191655224e-08,0.00019268830789175245,6.300233244463642e-09,-26.96400589222158,141.27433560658935,-112.19287455660793,11.259480287063084,15824.00223935041,116.96400589222158,-51.27433560658934,-157.80712544339207,11.259480287063084,0.0007381386243430886,2.639898443466301e-08,0
2024-02-06 10:41:55.623469,-1.2849916219711304,5.123216152191162,-11.263418197631836,1,7.4178e-05,-1.3591715373401527e-05,-6.608011961497613e-10,0.0007071172337210176,2.4997064919810242e-08,0.00020140571997442452,6.12525549609106e-09,-14.080312238572963,155.54137321462417,-96.50847256447453,12.440383302187774,15919.855147411496,104.08031223857296,-65.54137321462416,-173.49152743552548,12.440383302187774,0.0007353664263416383,2.5745070746036698e-08,0
2024-02-06 10:41:55.698656,-3.196925163269043,7.336656093597412,-8.470894813537598,1,7.518700000000001e-05,-1.5852842391555234e-05,-6.756559755421822e-10,0.000713403239269018,2.571371749843373e-08,0.00019144975906028937,6.3234510852640765e-09,-23.545015446639397,139.1041086515762,-110.67656260441565,11.653450651085326,-10466.339275439217,113.5450154466394,-49.1041086515762,-159.32343739558436,11.653450651085326,0.0007388156093746681,2.6488446768624813e-08,0
2024-02-06 10:41:55.774241,-0.600619912147522,5.329006195068359,-10.775264739990234,1,7.5585e-05,-1.6608553861563113e-05,-6.821157933965527e-10,0.0007159237060644625,2.5998153560555087e-08,0.0001876197733091374,6.398885922205591e-09,-6.430536793628832,153.68487956038794,-93.19040066394312,12.036003552792009,5061.227779409712,96.43053679362883,-63.684879560387934,-176.8095993360569,12.036003552792009,0.0007402862799640551,2.6782737193184814e-08,0
2024-02-06 10:41:55.849149,-4.651813507080078,-2.2804415225982666,-14.871923446655272,1,7.490800000000001e-05,-1.4830605149154588e-05,-6.714736380714248e-10,0.0007148917669228314,2.5513822522948893e-08,0.00019630134651031682,6.2689286231467066e-09,-116.11531068419997,-171.28224217951802,-107.36924712096112,15.748456732194992,49560.169533333996,-153.88468931580007,-98.71775782048198,-162.6307528790389,15.748456732194992,0.0007415014523956791,2.6281276275349855e-08,0
2024-02-06 10:41:55.923709,4.1564812660217285,-0.5240468978881836,-11.246667861938477,1,7.456e-05,-1.4744417339210434e-05,-6.663275841584492e-10,0.000715379747907996,2.5264955279368324e-08,0.00020084598139801218,6.199824988090656e-09,97.1859050111129,-177.3321899491122,-69.71697469806608,12.001604045407248,-50252.85255884849,-7.185905011112896,-92.6678100508878,159.71697469806608,12.001604045407248,0.0007431855016100027,2.6023062609939767e-08,0
2024-02-06 10:41:55.998728,-1.907147765159607,1.5506044626235962,-11.897539138793944,1,7.501900000000001e-05,-1.4228195300762573e-05,-6.729767987593231e-10,0.0007156153428691028,2.559336865270167e-08,0.00019553438589134405,6.290794282383564e-09,-50.88720114443134,172.57450386413973,-99.1069054909701,12.14878695001255,1961.9417028393032,140.88720114443134,-82.57450386413971,-170.8930945090299,12.14878695001255,0.000741984808845225,2.6363753705950724e-08,0
2024-02-06 10:41:56.088481,1.5338541269302368,3.0030996799468994,-9.44480800628662,1,8.9753e-05,-1.6978249533598343e-05,-9.028746778540599e-10,0.0007491624812874196,3.638438688326277e-08,3.830531447353557e-05,8.013491354971632e-09,27.055990401468495,162.36126021094307,-80.7755937270968,10.02874441024468,-23620.85434211524,62.944009598531515,-72.3612602109431,170.7755937270968,10.02874441024468,0.0007503332469262341,3.726734274470155e-08,0
2024-02-06 10:41:56.163615,1.524282455444336,4.993999004364014,-10.114822387695312,1,7.5134e-05,-3.933169888246529e-05,-4.912771099068426e-10,0.000690707688454449,2.5859655877534578e-08,0.00018127643283834654,6.40845857299543e-09,16.97338522481307,153.7230293431031,-81.43013178481868,11.383017833342196,18024.77471048414,73.02661477518693,-63.7230293431031,171.43013178481868,11.383017833342196,0.0007151819618318577,2.664641620528032e-08,0
2024-02-06 10:41:56.238647,-1.612820029258728,4.881532669067383,-8.51396656036377,1,7.5032e-05,-3.932718346620075e-05,-4.872655069070604e-10,0.000690204036339104,2.5789229379570102e-08,0.00018222650107469762,6.3899199233658635e-09,-18.283149112728896,150.1719437229057,-100.72656876587311,9.945761722308792,-19155.241910563553,108.28314911272889,-60.17194372290569,-169.2734312341269,9.945761722308792,0.0007149368761171172,2.6573536766740912e-08,0
2024-02-06 10:41:56.314007,0.2727915346622467,7.427586555480957,-6.846109867095947,1,7.536e-05,-3.9546948139314576e-05,-5.002008644903649e-10,0.0006922227318919299,2.601594736955999e-08,0.0001797074485405942,6.449277091102772e-09,2.1033456459579534,132.66719513494078,-87.71818742648573,10.105081769728207,2114.119525204554,87.89665435404206,-42.66719513494077,177.71818742648574,10.105081769728207,0.0007162618506635899,2.680807515354982e-08,0
2024-02-06 10:41:56.389021,0.4450809061527252,6.070807933807373,-10.717835426330566,1,7.5014e-05,-3.967114007157557e-05,-4.864961352298809e-10,0.000689887509645283,2.5776842297774054e-08,0.000182746011076357,6.38657264258904e-09,4.193134439192264,150.47186973945628,-87.62203722973067,12.325777955492578,29603.756442322385,85.80686556080774,-60.47186973945628,177.62203722973067,12.325777955492578,0.0007147829599839863,2.6560696290816134e-08,0
2024-02-06 10:41:56.463982,0.7537660598754883,7.573554039001465,-7.008827686309815,1,7.4961e-05,-3.970290951617531e-05,-4.843927229158057e-10,0.0006895259340530036,2.5740287841516053e-08,0.00018321576764884193,6.376874655452823e-09,5.683706470816016,132.7822363860269,-83.86170418916234,10.346523550984584,-26403.78869689564,84.316293529184,-42.78223638602689,173.86170418916234,10.346523550984584,0.0007145560525745137,2.6522850239849215e-08,0
2024-02-06 10:41:56.538993,2.103366136550904,6.767144203186035,-7.331870555877685,1,7.501099999999999e-05,-3.963148121126467e-05,-4.863760826839912e-10,0.0006898844515090582,2.5774773101155095e-08,0.00018285725019278733,6.386026480898861e-09,17.26630795374001,137.29371698078134,-73.992879831229,10.196799283071604,-1996.0308209859859,72.73369204625999,-47.293716980781326,163.99287983122903,10.196799283071604,0.0007148062567472536,2.6558554635457418e-08,0
2024-02-06 10:41:56.613633,0.600619912147522,6.67621374130249,-7.896596908569336,1,7.464e-05,-4.013307062329821e-05,-4.715797583186803e-10,0.0006873907086103557,2.5519288558952953e-08,0.00018568213090744214,6.317662425704771e-09,5.1407271524424685,139.78699915763417,-85.6504233806718,10.358031518336439,2160.1317693573847,84.85927284755753,-49.786999157634156,175.65042338067178,10.358031518336439,0.0007131581194797056,2.6293902991924285e-08,0
2024-02-06 10:41:56.689224,-0.3038993179798126,6.949005126953125,-8.33210563659668,1,7.5591e-05,-3.999197998077146e-05,-5.096792198809154e-10,0.0006938695001822112,2.6176077788233816e-08,0.00017796538284721572,6.490576818495111e-09,-2.5041081636710767,140.17177597777803,-92.08883973637653,10.853801702136241,6558.587448238577,92.50410816367108,-50.17177597777802,-177.9111602636235,10.853801702136241,0.000717444018190862,2.6973587242330827e-08,0
2024-02-06 10:41:56.764133,0.6700142621994019,4.067943572998047,-10.25121784210205,1,7.4909e-05,-4.011682517675034e-05,-4.823621173222004e-10,0.0006901127206755278,2.5704139850921323e-08,0.00018430229615345203,6.367043539955882e-09,9.352979615492714,158.35556493238255,-86.26049650264511,11.04918781046273,2608.3128639614506,80.64702038450729,-68.35556493238255,176.2604965026451,11.04918781046273,0.0007154245335937786,2.6485368076121637e-08,0
2024-02-06 10:41:56.853688,0.7035149931907654,1.6080342531204224,-10.34693431854248,1,8.955499999999999e-05,-3.005847043952815e-05,-9.962558071202075e-10,0.0007316779062961934,3.611591261223523e-08,3.3462027881052175e-05,7.961731684860556e-09,23.629377953478567,171.16623535805903,-86.1102974854549,10.494749034497438,-6191.042107814096,66.37062204652143,-81.16623535805901,176.1102974854549,10.494749034497438,0.000733059191005104,3.6996497683828736e-08,0
2024-02-06 10:41:56.929215,0.7729093432426453,0.6054057478904724,-10.433079719543455,1,7.5527e-05,-4.041411073527209e-05,-5.019611227601588e-10,0.000716152838129103,2.5960827770836207e-08,0.00017921304634418688,6.4700287142447295e-09,51.92905139401062,176.67899212707266,-85.76312116100989,10.479172553536827,-206.23725238141526,38.07094860598938,-86.67899212707266,175.76312116100988,10.479172553536827,0.0007393412634817941,2.6759630324033523e-08,0
2024-02-06 10:41:57.003814,0.6508709788322449,0.4881532490253448,-10.10285758972168,1,7.4599e-05,-4.107474480471484e-05,-4.641502937896048e-10,0.000715645426754534,2.5296473375930198e-08,0.00018874172125568593,6.2992977020783885e-09,53.13010151464225,177.23371482045997,-86.31384545866716,10.135564024947847,-4606.074191195328,36.86989848535776,-87.23371482045994,176.31384545866717,10.135564024947847,0.0007412549823360452,2.6073130849473762e-08,0
2024-02-06 10:41:57.078948,2.167974710464477,-1.115095138549805,-9.822887420654297,1,7.5134e-05,-4.032070358282795e-05,-4.859235762332729e-10,0.0007154777197990863,2.5679298817633297e-08,0.00018341158446541028,6.3988487113587835e-09,117.2189688937224,-173.52350302148332,-77.55397867245622,10.120902568055843,-195.13744632261825,-27.218968893722398,-96.47649697851666,167.55397867245622,10.120902568055843,0.0007397120628882745,2.646899647357452e-08,0
2024-02-06 10:41:57.154219,0.5934411883354187,0.4331163763999939,-10.062178611755373,1,7.5271e-05,-4.0131546593760155e-05,-4.914345553703692e-10,0.000715431004253879,2.577731606523093e-08,0.0001820494574421902,6.423882792729455e-09,53.8765833391438,177.53528213962804,-86.62475336624614,10.08896430038218,-424.31039409152305,36.1234166608562,-87.53528213962805,176.62475336624613,10.08896430038218,0.0007393200036754834,2.657024278368096e-08,0
2024-02-06 10:41:57.229259,0.5503688454627991,0.4929390549659729,-9.973641395568848,1,7.504e-05,-4.0263656652663855e-05,-4.821489093954071e-10,0.0007153240448515562,2.5612063857059248e-08,0.0001843635946530362,6.381562085212455e-09,48.15071629350829,177.17050545447518,-86.84148834362293,10.000970826143396,-1172.6209253569327,41.849283706491704,-87.17050545447516,176.84148834362293,10.000970826143396,0.000739796989871697,2.6399519261462564e-08,0
2024-02-06 10:41:57.319230,0.5599405169487,0.4546525478363037,-10.026285171508787,1,8.9971e-05,-3.197464210758081e-05,-1.0214439287900135e-09,0.0007223982899622766,3.634537994761191e-08,3.505414286651814e-05,8.019625204664688e-09,50.9245825160572,177.4036406630639,-86.80350835788192,10.05219561400353,569.3477660594409,39.07541748394281,-87.40364066306388,176.80350835788195,10.05219561400353,0.0007239547361613401,3.723364580133438e-08,0
2024-02-06 10:41:57.379283,0.4785816073417663,0.4379021823406219,-10.07892894744873,1,6.0053e-05,-4.7509894564841896e-05,1.6756525529275734e-10,0.00070904656375356,1.4932396380876717e-08,0.00033580804087200364,2.4718977981201413e-09,47.54148578239578,177.51221804246447,-87.28144468489486,10.099782542406766,792.4155063566511,42.45851421760422,-87.51221804246445,177.28144468489486,10.099782542406766,0.0007859842619076968,1.5136539185519013e-08,0
2024-02-06 10:41:57.454223,0.4522596299648285,0.3541503846645355,-10.0885009765625,1,7.494000000000001e-05,-4.0581177814950254e-05,-4.881406419662259e-10,0.0007149422070360629,2.553185679624928e-08,0.00018569177623262595,6.353681686738453e-09,51.93661398275298,177.98949383556166,-87.433193442004,10.10484107851066,67.50114897109326,38.063386017247026,-87.98949383556166,177.433193442004,10.10484107851066,0.0007397774173052816,2.6315076738001644e-08,0
2024-02-06 10:41:57.529291,0.44268798828125,0.3230426013469696,-10.066964149475098,1,7.5068e-05,-4.0523901167382516e-05,-4.933313670210945e-10,0.0007149855473871676,2.5623372172532353e-08,0.00018440182646455974,6.37736767731107e-09,53.88065785803725,178.1620448591705,-87.48207873823377,10.081869685929808,-306.0077873508214,36.11934214196275,-88.16204485917049,177.48207873823375,10.081869685929808,0.0007394934436097571,2.6409683750878278e-08,0
2024-02-06 10:41:57.619212,0.4402951002120971,0.2727915346622467,-10.148323059082031,1,8.9921e-05,-3.396642726068667e-05,-1.0465337910921504e-09,0.0007194105095982401,3.6275914489734484e-08,3.4272996010210194e-05,8.00135624641995e-09,58.219084419635635,178.4602342003618,-87.51572353178197,10.16153216341661,885.9162763625973,31.78091558036437,-88.46023420036182,177.515723531782,10.16153216341661,0.0007210269327540899,3.716260091576678e-08,0
2024-02-06 10:41:57.694077,0.4785816073417663,0.3038993179798126,-10.10285758972168,1,7.4865e-05,-4.088373111515215e-05,-4.830617988388358e-10,0.0007150691808595507,2.5477151379968236e-08,0.00018672388393440453,6.33769173419689e-09,57.584452898981326,178.27703208864347,-87.2878739643292,10.118751238594186,-571.4409246299816,32.41554710101868,-88.27703208864345,177.2878739643292,10.118751238594186,0.0007401764801157856,2.6258045008283126e-08,0
2024-02-06 10:41:57.769228,0.4857603311538696,0.3661149442195892,-10.081321716308594,1,7.5151e-05,-4.074583021794728e-05,-4.947348261094692e-10,0.0007151649928990452,2.5681674866815716e-08,0.00018383754629364217,6.390682018719501e-09,52.99486361540451,177.9201510342359,-87.24138280483706,10.099655974310158,-254.09195199036122,37.00513638459549,-87.92015103423587,177.24138280483706,10.099655974310158,0.0007395386623941363,2.6469491932739934e-08,0
2024-02-06 10:41:57.844225,0.5120823383331299,0.3900440335273742,-10.059785842895508,1,7.4997e-05,-4.0822664103497776e-05,-4.88454052046718e-10,0.0007151067686577587,2.5571543941175844e-08,0.00018538841157570088,6.362251619963562e-09,52.704118606969175,177.77960597210773,-87.0859365801629,10.080359808768927,-257.2924989163719,37.29588139303083,-87.77960597210772,177.0859365801629,10.080359808768927,0.0007398736673454528,2.6355657695686077e-08,0
2024-02-06 10:41:57.919215,0.5049036145210266,0.3493645787239074,-10.162680625915527,1,7.499e-05,-4.0826223554332766e-05,-4.881682809399155e-10,0.0007151041807276159,2.5566538202852994e-08,0.00018545919020834174,6.360953653357317e-09,55.31896975022294,178.03110647308287,-87.15576228360233,10.181211164354766,1344.864056352028,34.681030249777066,-88.03110647308287,177.15576228360234,10.181211164354766,0.0007398891005120678,2.635048225988696e-08,0
2024-02-06 10:41:57.994253,0.4259376525878906,0.3852581977844238,-9.980819702148438,1,7.5038e-05,-4.0803883363922154e-05,-4.901274035059535e-10,0.0007151218116742521,2.5600863626670637e-08,0.00018497574620046823,6.3698440918311275e-09,47.87083598411462,177.78948860662064,-87.55634992510542,9.997330078058171,-2450.5062274660077,42.12916401588538,-87.78948860662062,177.55634992510542,9.997330078058171,0.0007397838800029783,2.6385968942930463e-08,0
2024-02-06 10:41:58.069214,0.4187589287757873,0.3158638775348663,-10.107644081115724,1,7.4961e-05,-4.083640418230465e-05,-4.869842524354241e-10,0.0007150948184743523,2.5545800286409922e-08,0.00018574915205612382,6.35557118324825e-09,52.97327124742159,178.21008939175394,-87.62759693477123,10.121244878969906,1653.0569350960411,37.026728752578414,-88.21008939175394,177.62759693477125,10.121244878969906,0.000739953349073424,2.6329040069865762e-08,0
2024-02-06 10:41:58.144250,0.4522596299648285,0.2919347882270813,-10.136358261108398,1,7.5036e-05,-4.0803740986351876e-05,-4.900457578792487e-10,0.0007151176109243183,2.5599433252512372e-08,0.0001849900019682904,6.369473901524166e-09,57.15765027692002,178.35029422737063,-87.44529613770804,10.150641531007466,391.76731219095024,32.842349723079984,-88.35029422737063,177.44529613770806,10.150641531007466,0.0007397833761046635,2.6384490244779208e-08,0
2024-02-06 10:41:58.219198,0.667621374130249,0.0861446931958198,-13.799901008605955,1,7.4948e-05,-4.085301575053206e-05,-4.864528605828257e-10,0.0007151009754271357,2.5536503634712905e-08,0.00018604319737615787,6.353148440753009e-09,82.64762066039613,179.6423406780508,-87.23026375144723,13.816309458559656,48909.48294220247,7.352379339603869,-89.6423406780508,177.23026375144724,13.816309458559656,0.0007400340838385069,2.6319425323922196e-08,0
2024-02-06 10:41:58.294213,1.7348583936691284,3.323749303817749,-7.094972610473633,1,7.5015e-05,-4.0772532678310785e-05,-4.891873164551918e-10,0.0007152152068760357,2.558441922682006e-08,0.00018534321910991872,6.365589885705292e-09,27.562679356435385,154.89853464963102,-76.25967967284433,8.024691858512963,-77206.12677526753,62.43732064356461,-64.89853464963103,166.25967967284433,8.024691858512963,0.0007399643913309354,2.6368969376850023e-08,0
2024-02-06 10:41:58.384214,0.6939433217048645,5.2452545166015625,-7.420407772064209,1,9.0001e-05,-2.2573521425013463e-05,-9.638392998514004e-10,0.0007794227525024375,3.6783741456442954e-08,7.65794739035627e-05,8.328176624455307e-09,7.5364226930598095,144.744702685376,-84.657339591117,9.113545072109908,12098.234615136998,82.4635773069402,-54.74470268537602,174.657339591117,9.113545072109908,0.0007835009934973586,3.772706121099948e-08,0
2024-02-06 10:41:58.459211,1.904754877090454,7.099758148193359,-9.612311363220217,1,7.4997e-05,-4.2068955312375936e-05,-4.788914393675052e-10,0.0006868104674911461,2.5784059840051096e-08,0.0002043589328564664,6.22057669694157e-09,15.017921851108321,143.5500200095851,-78.79159172650526,12.10087544965778,39832.66500723858,74.98207814889167,-53.55002000958509,168.79159172650526,12.10087544965778,0.000717802889862332,2.6528148320012232e-08,0
2024-02-06 10:41:58.534172,1.5649619102478027,6.913111686706543,-8.006670951843262,1,7.4961e-05,-4.213141021454802e-05,-4.773758327880207e-10,0.000686558235834118,2.5759339203391243e-08,0.0002046760745381375,6.2132140668084676e-09,12.755396219826554,139.1920508918355,-78.94055420815225,10.693315608570417,-18777.22870675901,77.24460378017345,-49.1920508918355,168.94055420815224,10.693315608570417,0.0007176556015294969,2.6502367307866776e-08,0
2024-02-06 10:41:58.609069,0.7130866050720215,7.224189758300781,-7.896596908569336,1,7.489700000000001e-05,-4.2204307767038245e-05,-4.746770898126103e-10,0.0006861058421878778,2.5715413952894544e-08,0.00020518497910967064,6.20009851309174e-09,5.637300658365371,137.54621189243562,-84.84001323510859,10.72630658272911,440.4845876162345,84.36269934163462,-47.546211892435636,174.8400132351086,10.72630658272911,0.0007173725015155432,2.645655031708327e-08,0
2024-02-06 10:41:58.684148,0.4714028835296631,6.850895881652832,-7.595090389251709,1,7.5079e-05,-4.2096519223575496e-05,-4.823484650687559e-10,0.0006873866749811135,2.5840401771956917e-08,0.00020377523556556898,6.237313892627185e-09,3.93625738419802,137.94902293504305,-86.44839078991585,10.239257447723027,-6487.15532980039,86.06374261580198,-47.949022935043054,176.44839078991586,10.239257447723027,0.0007181900197734128,2.6586897306249717e-08,0
2024-02-06 10:41:58.758499,1.0863802433013916,8.109565734863281,-7.398871898651123,1,7.435100000000001e-05,-4.2663552281742e-05,-4.514957990408204e-10,0.0006819410669527017,2.534196647389301e-08,0.0002092330378383656,6.0869788811081536e-09,7.630077023662505,132.3761838750041,-81.64691795830892,11.031254861245547,10652.14204950195,82.3699229763375,-42.376183875004116,171.64691795830893,11.031254861245547,0.0007145923744436103,2.606665350825697e-08,0
2024-02-06 10:41:58.833466,0.5312256217002869,6.412993907928467,-6.7408223152160645,1,7.4967e-05,-4.2165329675321487e-05,-4.776230946835957e-10,0.0006864140153226815,2.5763419839233824e-08,0.00020487801202049454,6.214525084464682e-09,4.735331814753639,136.42766907149934,-85.49399049947425,9.319194010728253,-22837.52651856541,85.26466818524636,-46.427669071499324,175.49399049947422,9.319194010728253,0.0007175772538671393,2.6506645349018476e-08,0
2024-02-06 10:41:58.909211,0.5479759573936462,7.571161270141602,-6.659463405609131,1,7.5745e-05,-4.1745520261053945e-05,-5.102644153088457e-10,0.0006918538516869508,2.629956603950057e-08,0.00019966530087509355,6.371892433181065e-09,4.1396633122376905,131.3343037016408,-85.29599711086765,10.09807969264557,10282.997978973084,85.86033668776231,-41.334303701640806,175.29599711086763,10.09807969264557,0.0007212979085852648,2.706526476537062e-08,0
2024-02-06 10:41:58.984119,0.9380199909210204,6.71928596496582,-7.506552696228027,1,7.490800000000001e-05,-4.2367409565423625e-05,-4.750631541764652e-10,0.0006858732995190584,2.572298722672086e-08,0.00020559377861371236,6.202291508415001e-09,7.947195567033308,138.16755296462637,-82.87723147146878,10.118152932408286,267.9719090446461,82.0528044329667,-48.16755296462634,172.87723147146878,10.118152932408286,0.0007172767821358143,2.6464432297365786e-08,0
2024-02-06 10:41:59.074215,0.5072965025901794,6.817395210266113,-6.326848983764648,1,9.0096e-05,-3.139167611369958e-05,-1.0351896508237264e-09,0.0007886708563637696,3.6920675546495046e-08,0.00010054292625584804,8.527093645194441e-09,4.255654488010043,132.8627001954467,-85.41574349014793,9.314679020656769,-8917.975401255519,85.74434551198996,-42.86270019544671,175.41574349014792,9.314679020656769,0.0007956733230584509,3.790671743183054e-08,0
2024-02-06 10:41:59.134172,-0.8351249098777771,5.580261707305908,-6.460851669311523,1,5.9957e-05,-2.6451465930079127e-05,-1.6352242179500333e-10,0.000601844365444418,1.5966306411456565e-08,0.0002932471812473794,2.592873620174556e-09,-8.51154146316824,139.18270526424266,-97.36517228097487,8.577841140401734,-12289.438768701479,98.51154146316824,-49.18270526424264,-172.6348277190251,8.577841140401734,0.0006700076339688808,1.6176299750472784e-08,0
2024-02-06 10:41:59.224181,0.5503688454627991,5.960733890533447,-6.47520923614502,1,9.000900000000001e-05,-3.073021055397859e-05,-1.0227342926444548e-09,0.0007752593652975522,3.665866706958542e-08,9.886993008198934e-05,8.484825335009654e-09,5.275299445724833,137.36897727310523,-85.14174739077383,8.818253173484408,2670.9777142582802,84.72470055427517,-47.36897727310523,175.14174739077384,8.818253173484408,0.0007821423734823941,3.764168059103737e-08,0
2024-02-06 10:41:59.299099,0.4498667120933532,5.800409317016602,-8.042564392089844,1,7.4918e-05,-3.827748795351854e-05,-5.02036703556135e-10,0.0006865156592249833,2.562884362205062e-08,0.00020841379099383555,6.1662160176320155e-09,4.434853938948386,144.2003330228462,-86.79845495757039,9.926226387932836,14789.145658565742,85.5651460610516,-54.20033302284619,176.7984549575704,9.926226387932836,0.0007184742338605938,2.6364974610860977e-08,0
2024-02-06 10:41:59.374214,1.0098072290420532,4.714028835296631,-7.82959508895874,1,7.5115e-05,-3.81337100703167e-05,-5.095632065614828e-10,0.000687551331382986,2.5764189220625503e-08,0.00020685038328495227,6.2071195387984755e-09,12.090784977414465,148.9487690242153,-82.6509540974297,9.1947994951973,-9737.427847108249,77.90921502258554,-58.94876902421531,172.65095409742972,9.1947994951973,0.000719004933359553,2.650625273075412e-08,0
2024-02-06 10:41:59.449183,0.4067943692207336,4.771458625793457,-7.906168460845947,1,7.496899999999999e-05,-3.823712198698989e-05,-5.03988135821299e-10,0.0006868588907983264,2.566385727440626e-08,0.00020799909402408807,6.176835526954914e-09,4.873011908087552,148.88856211799222,-87.05457009716582,9.243365123577217,647.8094729810583,85.12698809191245,-58.88856211799223,177.05457009716582,9.243365123577217,0.0007186799263103128,2.6401531610291024e-08,0
2024-02-06 10:41:59.524205,-0.3421858549118042,4.381414890289307,-7.714735507965088,1,7.5022e-05,-3.823540986136071e-05,-5.060146579152807e-10,0.0006871014419465027,2.5700267223224003e-08,0.00020758514006891451,6.18784850915838e-09,-4.465700935514003,150.4065408107052,-92.53968049309579,8.878684111849454,-4860.987600007502,94.46570093551401,-60.406540810705174,-177.46031950690423,8.878684111849454,0.0007187919924913328,2.6439539620640915e-08,0
2024-02-06 10:41:59.599201,0.5001177787780762,4.230661392211914,-8.805901527404785,1,7.4996e-05,-3.823746297637097e-05,-5.0502051056839e-10,0.0006869894849548301,2.5682404041174283e-08,0.00020779990835037435,6.182448503528929e-09,6.741799418171867,154.33875114637385,-86.74946524474643,9.78225512438478,12048.256074128312,83.25820058182813,-64.33875114637384,176.74946524474646,9.78225512438478,0.000718747144636969,2.642089310657395e-08,0
2024-02-06 10:41:59.673526,-0.5455830693244934,4.417308330535889,-9.581204414367676,1,7.4325e-05,-3.822220937139265e-05,-4.793682904957155e-10,0.0006840880911128483,2.5222407514403582e-08,0.00021396878239383896,6.040945107784247e-09,-7.040960506845104,155.24845833939207,-93.25907734851263,10.564551661213738,10525.34862871116,97.0409605068451,-65.24845833939206,-176.74092265148738,10.564551661213738,0.0007177883347692085,2.5940174490080778e-08,0
2024-02-06 10:41:59.749160,2.1655819416046143,4.833674430847168,-9.327555656433104,1,7.5634e-05,-3.716192010948531e-05,-5.2870720324095e-10,0.0006901428593301735,2.6121841671468537e-08,0.00020159299892749989,6.312930293659063e-09,24.13332530047517,152.6061550796079,-76.9291869691646,10.726483495213467,2140.992595918884,65.86667469952484,-62.606155079607895,166.92918696916462,10.726483495213467,0.0007199429920537003,2.6879048206895782e-08,0
2024-02-06 10:41:59.839037,0.6125844717025757,4.405344009399414,-7.575946807861328,1,8.9877e-05,-1.737720799711817e-05,-9.171076040521264e-10,0.0007559385291523895,3.6420110279547104e-08,8.121470612802714e-05,8.326945365211998e-09,7.916491678699929,149.82238918358246,-85.37717057330978,8.785060364713875,-21600.889332082646,82.08350832130007,-59.82238918358246,175.37717057330977,8.785060364713875,0.0007604872488781879,3.737115917719182e-08,0
2024-02-06 10:41:59.899290,3.225640058517456,2.790130853652954,-9.145694732666016,1,6.0253e-05,-7.422898973873726e-05,4.397633968113639e-10,0.0006493591554808579,1.560484097475945e-08,0.00032889566062631814,2.2523906128466366e-09,49.14068020657024,163.03431669581488,-70.5725127797636,10.091249482137163,21678.40800330753,40.85931979342977,-73.03431669581488,160.5725127797636,10.091249482137163,0.0007316758922523474,1.5772688964331547e-08,0
2024-02-06 10:41:59.988471,2.002864122390747,2.2876200675964355,-8.93990421295166,0,8.9181e-05,1.3960947339189769e-06,-6.136915965383278e-10,0.000722803744805809,3.54518051645058e-08,6.730555747690408e-05,7.983045031491643e-09,41.202894443109685,165.64665081968204,-77.37217620157938,9.4428045411933,-7271.110897431772,48.797105556890315,-75.64665081968202,167.37217620157938,9.4428045411933,0.000725931980734479,3.634468482147789e-08,0
2024-02-06 10:42:00.064289,2.218225717544556,1.2060257196426392,-8.042564392089844,0,7.5818e-05,-2.6807117031608748e-05,-4.439078510563136e-10,0.0006994609504783711,2.5948943602964554e-08,0.00018077392146148888,6.325501992964771e-09,61.46754506246633,171.47173524479496,-74.58057113603967,8.429582751911692,-13363.868596924327,28.532454937533668,-81.47173524479497,164.58057113603965,8.429582751911692,0.0007229408367551368,2.671248217131957e-08,0
2024-02-06 10:42:00.139211,5.675978183746338,-0.3541503846645355,-10.91883945465088,0,7.4922e-05,-3.0343720379387067e-05,-4.1830427589618744e-10,0.0006990793103283009,2.5322397566123166e-08,0.00018926863038482873,6.159722929737621e-09,93.57031882094753,-178.14227406440017,-62.533079561361326,12.311100920460492,51807.45533419823,-3.570318820947524,-91.85772593559983,152.53307956136132,12.311100920460492,0.0007248829132648281,2.6064170493901565e-08,0
2024-02-06 10:42:00.214205,-1.05048668384552,2.2804415225982666,-9.203125,0,7.499400000000001e-05,-3.0177202685390616e-05,-4.204830291265197e-10,0.0006991486568092666,2.5372733772940126e-08,0.00018854423966446123,6.173324193059397e-09,-24.733187591589875,166.08299840118457,-96.51181853603282,9.539467782667545,-36958.06514911788,114.73318759158988,-76.0829984011846,-173.48818146396718,9.539467782667545,0.0007247540535869852,2.6116323567510272e-08,0
2024-02-06 10:42:00.289176,0.3900440335273742,1.9262909889221191,-10.480937004089355,0,7.4971e-05,-3.0169607594911953e-05,-4.1978904080829594e-10,0.0006991002793853841,2.5356653910173882e-08,0.00018877060637750834,6.1689850723299126e-09,11.446742181320447,169.58583224047197,-87.8687431504697,10.663619076363446,14994.481782234476,78.55325781867955,-79.58583224047196,177.8687431504697,10.663619076363446,0.0007247659951262099,2.609966469481454e-08,0
2024-02-06 10:42:00.364125,0.1579319387674331,2.814059972763061,-10.222503662109377,0,7.4949e-05,-3.0175635330607193e-05,-4.191252431361154e-10,0.0006990481355248055,2.5341274277609873e-08,0.00018899834422483647,6.1648296138732875e-09,3.2122097909707557,164.60878719034977,-89.11488281118335,10.603935927259732,-796.3168168182893,86.78779020902924,-74.60878719034977,179.11488281118335,10.603935927259732,0.0007247753023303447,2.6083730027558843e-08,0
2024-02-06 10:42:00.438435,0.8088029623031616,3.646791934967041,-11.816180229187012,0,7.431e-05,-3.048450713149925e-05,-3.9974432761947223e-10,0.0006969838933402857,2.4895242044387474e-08,0.00019603970372810572,6.041809957552321e-09,12.504921597043145,162.84836307838083,-86.08428229142392,12.392552959636728,24069.66804436813,77.49507840295685,-72.84836307838084,176.08428229142393,12.392552959636728,0.0007246705583840402,2.5621013632159058e-08,0
2024-02-06 10:42:00.514080,-1.514710783958435,5.874589443206787,-11.765929222106934,0,7.5645e-05,-3.095570060245415e-05,-4.407556662818861e-10,0.0007033394154102167,2.5829957852978434e-08,0.000180298645669367,6.293015805775134e-09,-14.458293564701762,153.46758531953438,-97.33574043476213,13.237909213501446,11175.309060277856,104.45829356470176,-63.46758531953438,-172.6642595652379,13.237909213501446,0.0007267407999414799,2.6589152603566316e-08,0
2024-02-06 10:42:00.604066,-0.6221560835838318,8.107172966003418,-5.759729862213135,0,8.9986e-05,-4.627810447616598e-05,-9.94560665598132e-10,0.0008035956427654585,3.663543568762712e-08,5.4630907205249925e-05,7.977578164662574e-09,-4.388359089887243,125.39183761321557,-96.16508744296212,9.964327362080532,-36378.79060543767,94.38835908988725,-35.39183761321557,-173.83491255703788,9.964327362080532,0.0008067788767981013,3.750714668317384e-08,0
2024-02-06 10:42:00.664281,-0.6915504336357117,9.65299129486084,-5.601798057556152,0,6.0215e-05,-2.6722926114094463e-05,9.209617525319e-11,0.0005392267176603636,1.664685344150854e-08,0.00022375293105497568,3.8336955402399855e-09,-4.0977289343217,120.12733589541602,-97.0376428235013,11.182067090594689,20223.195690677694,94.0977289343217,-30.127335895416017,-172.9623571764987,11.182067090594689,0.00058441846477893,1.7082840299663783e-08,0
2024-02-06 10:42:00.754165,-3.2854628562927246,8.889653205871582,-5.939198017120361,0,8.988400000000001e-05,-8.571992976353787e-05,-1.5759373702635475e-09,0.0008142975775064788,3.672570959816107e-08,5.254802478518687e-05,7.932482069650878e-09,-20.283445059003437,123.74697725166938,-118.9506189295267,11.184555126928762,27.68052527783731,110.28344505900344,-33.74697725166936,-151.0493810704733,11.184555126928762,0.0008204814111242316,3.760565909366283e-08,0
2024-02-06 10:42:00.829148,-3.8765110969543457,8.533110618591309,-4.24501895904541,0,7.4983e-05,-3.235964282487053e-05,-6.9618551469361e-10,0.0006844892756323179,2.555899814885046e-08,0.00012842553336611,6.58413857464464e-09,-24.431847178871923,116.44924934819335,-132.40203224955178,10.288901840166467,-11944.751300458705,114.43184717887192,-26.449249348193355,-137.5979677504482,10.288901840166467,0.000697184217090274,2.640261239752487e-08,0
2024-02-06 10:42:00.904181,-3.831045866012573,8.109565734863281,-3.900440216064453,0,7.5033e-05,-3.2552331748944704e-05,-6.978083140579554e-10,0.0006849053425411543,2.5593233014304796e-08,0.00012822189688673226,6.590554760400961e-09,-25.286552937752102,115.68605744078776,-134.48575260003784,9.780358005444054,-6777.602317945616,115.2865529377521,-25.68605744078776,-135.51424739996216,9.780358005444054,0.0006975642173914463,2.6437396328260334e-08,0
2024-02-06 10:42:00.978553,-3.053350687026977,7.733879089355469,-3.019850015640259,0,7.4372e-05,-3.0277038688165134e-05,-6.770432071284906e-10,0.00067966908402675,2.5142241166324103e-08,0.00013050905280831066,6.505044181526749e-09,-21.544204260223903,111.32916820000719,-135.3160487702289,8.84620428792487,-12560.556627752163,111.5442042602239,-21.329168200007175,-134.6839512297711,8.84620428792487,0.0006927476999012039,2.5978958373528686e-08,0
2024-02-06 10:42:01.054166,-2.713557720184326,8.822651863098145,-1.6917860507965088,0,7.5613e-05,-3.385540535483974e-05,-7.16837388657175e-10,0.0006899424114827474,2.5992085099287742e-08,0.00012758548262908664,6.665191840765654e-09,-17.096176924898415,100.8549765851668,-148.05824241028589,9.384280549934063,7116.187190155043,107.09617692489842,-10.854976585166803,-121.94175758971414,9.384280549934063,0.000702456244197506,2.6842636344528488e-08,0
2024-02-06 10:42:01.128928,-2.053115129470825,7.269654750823975,-0.12921704351902,0,7.4762e-05,-3.182718605731148e-05,-6.888894460113048e-10,0.0006830951350185236,2.5407857623251454e-08,0.0001283603194457179,6.556286901982825e-09,-15.770881373288567,91.0183168150523,-176.39872167712366,7.555121373967157,-24466.42914805524,105.77088137328857,-1.0183168150522899,-93.60127832287635,7.555121373967157,0.0006957789195329997,2.624916561746972e-08,0
2024-02-06 10:42:01.203990,0.1316099464893341,7.2576904296875,0.6963362693786621,0,7.506200000000001e-05,-3.211541183475871e-05,-6.984808356951156e-10,0.0006852742367956003,2.5613113029023576e-08,0.00012844538732959684,6.594807757999123e-09,1.0388798143162497,84.5195542700938,79.29715250961033,7.292206507720736,-3502.6360374946253,88.96112018568375,5.480445729906187,10.702847490389678,7.292206507720736,0.0006979472736671151,2.6457719551774226e-08,0
2024-02-06 10:42:01.278985,0.2105759084224701,7.779344081878662,0.3517574965953827,0,7.499500000000001e-05,-3.212687506089826e-05,-6.963287190841112e-10,0.0006847704961394629,2.5567216530470254e-08,0.0001284102761884367,6.586203093271269e-09,1.5505375838846112,87.41102835305387,59.09359752952644,7.790139273073335,6639.54617444629,88.4494624161154,2.588971646946146,30.90640247047356,7.790139273073335,0.0006974467488741024,2.6411086800561403e-08,0
2024-02-06 10:42:01.369198,-1.966970443725586,14.78338623046875,-1.7444299459457395,0,9.0213e-05,-4.5491281080019654e-05,-1.286925269160355e-09,0.0008564503110861143,3.729436565264966e-08,0.00011781343152132985,8.459719285234881e-09,-7.578848312853014,96.72974515365563,-138.4314225887938,15.01534272009851,80090.49080537366,97.57884831285303,-6.729745153655614,-131.5685774112062,15.01534272009851,0.0008657116128715349,3.826346477342209e-08,1
2024-02-06 10:42:01.429042,2.4503378868103027,10.705870628356934,1.6391420364379885,0,5.9844e-05,-5.283097401953954e-05,2.0604901339890154e-10,0.00046940869031327566,1.7161859645900626e-08,0.0001194121757832503,4.857567051118484e-09,12.891691680232604,81.29522240093021,33.78035785091891,11.104350871900245,-65353.11557045426,77.1083083197674,8.704777599069788,56.21964214908109,11.104350871900245,0.00048723187301609065,1.783725988927747e-08,0
2024-02-06 10:42:01.519153,0.8829830884933472,9.734350204467772,-1.4309589862823486,0,9.011099999999999e-05,-2.386161039781764e-06,-6.295795000213372e-10,0.0007787407722868282,3.605072953815929e-08,0.0001225627139727807,8.519494045241378e-09,5.182999437732662,98.36264187070628,-58.32305381549166,9.878505790766598,-13603.722976480642,84.81700056226734,-8.362641870706273,148.32305381549165,9.878505790766598,0.0007883301992457013,3.704906543176577e-08,0
2024-02-06 10:42:01.594161,0.4044014811515808,11.4404935836792,1.0863802433013916,0,7.500800000000001e-05,-1.2107845617455425e-05,-5.201280087492107e-10,0.0006188389394206366,2.5496906345200386e-08,0.0001251648003504014,6.648779720829872e-09,2.0244629003423324,84.5755036490033,69.58238239525036,11.49907196382378,21605.244414691537,87.97553709965767,5.4244963509967095,20.417617604749648,11.49907196382378,0.0006314859144236792,2.6354677727066284e-08,0
2024-02-06 10:42:01.669165,2.3522286415100098,10.662798881530762,1.9023619890213013,0,7.5004e-05,-1.2113358877700761e-05,-5.200795663402202e-10,0.0006187947328357061,2.549443107785587e-08,0.00012515882286593674,6.648279073583438e-09,12.440282735664066,79.88422924625992,38.96415701933055,11.083647445998396,-5538.698173769188,77.55971726433593,10.115770753740083,51.03584298066945,11.083647445998396,0.0006314415141481432,2.635215576341175e-08,0
2024-02-06 10:42:01.744193,2.3426570892333984,11.194024085998535,2.0411505699157715,0,7.5028e-05,-1.2057020248931844e-05,-5.203696108897398e-10,0.0006190570147113164,2.5509285298826433e-08,0.00012520614501664398,6.651283453198029e-09,11.820124224883314,79.6660553478724,41.065546071320995,11.61725066978923,7112.0544835372675,78.1798757751167,10.333944652127611,48.93445392867901,11.61725066978923,0.0006317068449451051,2.636729020137727e-08,0
2024-02-06 10:42:01.834162,1.8425391912460327,10.480937004089355,1.7324655055999756,0,8.996899999999999e-05,1.920848856438973e-05,-4.669445668391117e-10,0.0007809798115348179,3.596826040929818e-08,0.00015339694390878434,8.73258782901544e-09,9.970663489333942,80.61406016731648,43.2364314651184,10.781763672194867,-9286.387506745257,80.02933651066606,9.38593983268352,46.76356853488161,10.781763672194867,0.0007961338169293167,3.7016103040312814e-08,0
2024-02-06 10:42:01.894233,1.42378032207489,8.659934043884277,-0.2464695274829864,0,6.0071e-05,-2.9619721840244728e-05,-3.113070405983554e-10,0.0004948429302386601,1.689598624252646e-08,0.00013118279003191348,4.47840538633595e-09,9.33647705277255,91.63024943687846,-9.821098320898713,8.779655760787621,-33329.02584287336,80.66352294722745,-1.6302494368784584,99.82109832089873,8.779655760787621,0.0005127921391067087,1.7482201748793896e-08,0
2024-02-06 10:42:01.969181,2.431194543838501,7.709949970245361,-2.433587551116944,0,7.4948e-05,-9.444913001479676e-07,-5.386589400431664e-10,0.0006166103124777634,2.516353118847258e-08,0.0001112471854527479,6.281720758978603e-09,17.501734831047788,107.51790844718724,-45.02818403859903,8.442534206186428,-4498.072725105316,72.49826516895222,-17.51790844718723,135.02818403859902,8.442534206186428,0.0006265661224395229,2.5941346746472188e-08,0
2024-02-06 10:42:02.044158,1.84014630317688,8.540288925170898,-0.6054057478904724,0,7.4977e-05,-8.825568578662534e-07,-5.386854322414577e-10,0.0006168459409417468,2.518141630414716e-08,0.0001112031200499123,6.284946288408391e-09,12.159426160117551,94.05481201722392,-18.211138520720574,8.757236405514645,4197.316501436662,77.84057383988245,-4.054812017223915,108.21113852072057,8.757236405514645,0.0006267900985750745,2.5959477246775523e-08,0
2024-02-06 10:42:02.134134,1.1677391529083252,7.975562572479248,-1.0337363481521606,0,8.9976e-05,2.1675080120044735e-05,-3.827519040367502e-10,0.0007407065692483741,3.5362381354317966e-08,9.891037390064058e-05,7.860692436290562e-09,8.329755300598396,97.38510436715022,-41.51672987495789,8.126612080950943,-7008.805954517887,81.67024469940161,-7.385104367150213,131.5167298749579,8.126612080950943,0.000747595674740746,3.622754476425658e-08,0
2024-02-06 10:42:02.209180,1.359171748161316,8.650362968444824,-0.7489802241325378,0,7.5046e-05,2.81169024355987e-06,-5.655456448010585e-10,0.0006165940350853759,2.5230132342966526e-08,0.00011221835311274585,6.284616489135633e-09,8.92948474535785,94.94853787571041,-28.85724093223703,8.788463955833413,8819.282505163088,81.07051525464215,-4.94853787571041,118.85724093223703,8.788463955833413,0.0006267288636086809,2.600722638682323e-08,0
2024-02-06 10:42:02.284129,1.718108057975769,8.872902870178223,0.0047858161851763,0,7.4949e-05,2.662442172962228e-06,-5.658111402232598e-10,0.0006157441566922027,2.5170363940665316e-08,0.00011225444654153129,6.273729558352401e-09,10.958867781123375,89.96909612937763,0.15959785443459543,9.03771672196771,3325.6316446423243,79.04113221887663,0.030903870622365683,89.8404021455654,9.03771672196771,0.0006258985667560373,2.5946619157865062e-08,0
2024-02-06 10:42:02.359023,1.39745831489563,8.882474899291992,0.2632198929786682,0,7.4894e-05,2.5767640977082666e-06,-5.659552183957032e-10,0.0006152558838035423,2.5136511439551682e-08,0.00011224707638452929,6.267555766471935e-09,8.94091880778763,88.3026153334859,10.667036711771924,8.99558418283565,-562.5622764448472,81.05908119221237,1.6973846665141012,79.33296328822807,8.99558418283565,0.0006254165399355596,2.5912289901623466e-08,0
2024-02-06 10:42:02.434140,0.7872667908668518,9.21030330657959,1.39745831489563,0,7.5117e-05,2.8203609470007844e-06,-5.653534389532182e-10,0.0006172732285734969,2.5273938435581722e-08,0.00011243224200470727,6.292607510472334e-09,4.885581633941202,81.37244627533507,60.604994977251565,9.348923239660472,4703.8494192369535,85.1144183660588,8.627553724664935,29.39500502274844,9.348923239660472,0.000627435416749505,2.6051650577983812e-08,0
2024-02-06 10:42:02.509027,0.1507532149553299,8.882474899291992,2.0291860103607178,0,7.488699999999999e-05,2.712488646331226e-06,-5.659897166564514e-10,0.0006151925590798216,2.513220487000158e-08,0.00011203817790730277,6.266793412182452e-09,0.9723296564496282,77.13170481026634,85.75116124692448,9.112556322625133,-3156.3144075118335,89.02767034355037,12.868295189733653,4.248838753075516,9.112556322625133,0.0006253173559486612,2.5907928625385422e-08,0
2024-02-06 10:42:02.584115,1.957398772239685,10.378042221069336,0.6077986359596252,0,7.5088e-05,2.9243579210443325e-06,-5.654232135764302e-10,0.000617128241050418,2.5256053110414674e-08,0.00011230319486425797,6.289339720145995e-09,10.681061170572868,86.648253845857,17.250271294396317,10.578496560368944,19522.962893455817,79.31893882942714,3.3517461541430067,72.74972870560369,10.578496560368944,0.0006272701374590956,2.603351140822044e-08,0
2024-02-06 10:42:02.659016,-1.761180400848389,11.481172561645508,0.7441943883895874,0,7.490099999999999e-05,2.906011503319246e-06,-5.659683531176082e-10,0.0006150844044682341,2.5140841228058677e-08,0.00011217678351648133,6.268350842167395e-09,-8.72103546483641,86.29135161823032,157.09330130937647,11.639282842268448,14162.511607315055,98.72103546483642,3.7086483817696805,-67.09330130937647,11.639282842268448,0.0006252366754142012,2.591668266024196e-08,0
2024-02-06 10:42:02.734146,-2.0411505699157715,10.399578094482422,-1.2658483982086182,0,7.513000000000001e-05,2.4706446071667226e-06,-5.653527259929575e-10,0.0006175897504183609,2.52819824187932e-08,0.00011211705413235704,6.2940324865781885e-09,-11.104426960613885,96.9399671449684,-148.1942942473631,10.673326208804518,-12857.13607698563,101.10442696061389,-6.939967144968408,-121.80570575263688,10.673326208804518,0.0006276889657576483,2.6059798611483125e-08,0
2024-02-06 10:42:02.809164,-0.8638398051261902,9.696063995361328,0.9763064980506896,0,7.5018e-05,2.633324068169075e-06,-5.656385482387763e-10,0.0006164643944613296,2.521287538667994e-08,0.00011213326847876589,6.2814744685119654e-09,-5.091142528173851,84.25020946854181,131.50252744595875,9.783304686515631,-11864.106245019684,95.09114252817385,5.749790531458193,-41.502527445958755,9.783304686515631,0.0006265853125743954,2.5989727850250232e-08,0
2024-02-06 10:42:02.899011,-1.5482115745544434,8.33449935913086,0.8734114766120911,0,8.9847e-05,-1.5250830886472968e-05,-6.591910525430905e-10,0.0007501520064532119,3.53456526912608e-08,0.00012584800240190308,8.045986601456684e-09,-10.52328280209685,84.0175410583826,150.57082106048517,8.5219531948031,-14038.882675131406,100.52328280209686,5.982458941617402,-60.570821060485166,8.5219531948031,0.000760787973312576,3.625586293836909e-08,0
2024-02-06 10:42:02.974170,-1.7898952960968018,8.080850601196289,1.4453164339065552,0,7.5159e-05,9.264225971589762e-06,-6.152254260481882e-10,0.0006295976763445694,2.52127710207939e-08,0.00010881926462705415,6.322590192396023e-09,-12.489280085071774,79.85947451693018,141.07959067479445,8.401952820860412,-1596.6201511819952,102.48928008507177,10.140525483069833,-51.07959067479445,8.401952820860412,0.000638999759229459,2.600072059795311e-08,0
2024-02-06 10:42:03.048835,-1.9478272199630733,8.66472053527832,2.294798851013184,0,7.466499999999999e-05,1.0187443433056575e-05,-6.20029988391136e-10,0.00062546152027386,2.490277139922914e-08,0.00010789545615167895,6.2690616563636745e-09,-12.669463720960271,75.16612734906784,130.32462552095922,9.172650358534023,10322.072425816792,102.66946372096028,14.83387265093217,-40.3246255209592,9.172650358534023,0.0006347813220355249,2.5687226292460197e-08,0
2024-02-06 10:42:03.124024,-1.3232781887054443,8.753257751464844,2.9911351203918457,0,7.5189e-05,9.330413815985405e-06,-6.149163097918869e-10,0.0006300250305849868,2.523170887555416e-08,0.0001092803708521871,6.325961723038688e-09,-8.596623814968757,71.13384095293313,113.86459867755302,9.344382041458092,2284.000092088852,98.59662381496877,18.866159047066873,-23.864598677553012,9.344382041458092,0.0006395004263010172,2.6019897128353855e-08,0
2024-02-06 10:42:03.199039,-1.6774286031723022,8.686256408691406,3.2136754989624023,0,7.5015e-05,9.591475306878773e-06,-6.165625141455761e-10,0.0006285077928530532,2.512221651991505e-08,0.00010874055232830328,6.306993902721985e-09,-10.930012862393665,69.69691510831878,117.56301760359682,9.412360348440998,906.1961872013163,100.93001286239367,20.303084891681213,-27.563017603596816,9.412360348440998,0.0006379173534214627,2.590915059001963e-08,0
2024-02-06 10:42:03.274145,-1.584105134010315,9.179195404052734,4.510631561279297,0,7.510600000000001e-05,9.443075521836947e-06,-6.156964420828694e-10,0.0006293206709105331,2.51794477150163e-08,0.00010909200829954433,6.3169052842305535e-09,-9.791409882368317,63.83062421225224,109.35095070376016,10.349532087152037,12477.987626967728,99.79140988236833,26.16937578774776,-19.350950703760155,10.349532087152037,0.0006387759738636249,2.596703605943453e-08,0
2024-02-06 10:42:03.348985,-0.9930568337440492,12.976740837097168,4.443630218505859,0,7.484000000000001e-05,9.785838063548279e-06,-6.182538875897256e-10,0.0006263739313904601,2.501244033291027e-08,0.0001079010914828329,6.2880452019594975e-09,-4.376082242432103,71.09723848061222,102.59739408244324,13.75237485480415,45468.23580507901,94.3760822424321,18.902761519387784,-12.597394082443234,13.75237485480415,0.00063567500351621,2.5798137950999526e-08,0
2024-02-06 10:42:03.424162,-0.3732936680316925,8.164602279663086,2.3306925296783447,0,7.517699999999999e-05,9.55560800399908e-06,-6.149948539273441e-10,0.000629936247705634,2.5224128598087948e-08,0.00010904256486590187,6.324600208054257e-09,-2.6177964712026833,74.06791163939475,99.09945374100633,8.49895324234524,-69880.7030402771,92.6177964712027,15.932088360605254,-9.099453741006336,8.49895324234524,0.000639375685157259,2.601221732176931e-08,0
2024-02-06 10:42:03.499202,-1.5864980220794678,7.729093074798584,2.270869731903076,0,7.504e-05,9.689853734771685e-06,-6.163131680564498e-10,0.0006288475295738535,2.5137901909344312e-08,0.00010872735785098358,6.309682968348152e-09,-11.599595006892065,73.62678755238504,124.93931003854958,8.210524043703607,-3843.672689787205,101.59959500689206,16.373212447614964,-34.939310038549564,8.210524043703607,0.0006382513196710178,2.5925008263952375e-08,0
2024-02-06 10:42:03.574202,-0.9212695956230164,9.786993980407717,3.1777820587158203,0,7.5e-05,9.740009087125742e-06,-6.167017653128878e-10,0.0006284972078327493,2.5112755014596177e-08,0.00010861838481517118,6.305336053494829e-09,-5.377522183973873,72.01167706330644,106.16738233479713,10.331131963780756,28274.772267695313,95.37752218397388,17.988322936693564,-16.167382334797125,10.331131963780756,0.0006378883613536431,2.5899576217343156e-08,0
2024-02-06 10:42:03.649183,-0.952377438545227,9.172017097473145,3.2017109394073486,0,7.4981e-05,9.757808733950329e-06,-6.16886994582188e-10,0.0006283170972275096,2.5100815278698114e-08,0.00010855777963168905,6.303272879932585e-09,-5.928069742713721,70.75724303181637,106.56557863611015,9.761345878582027,-7599.072901117998,95.92806974271373,19.24275696818363,-16.565578636110143,9.761345878582027,0.000637700855431647,2.588750135139162e-08,0
2024-02-06 10:42:03.723371,-0.8734114766120911,8.406286239624023,2.4407663345336914,0,7.4188e-05,1.0481734038810209e-05,-6.249119732915876e-10,0.0006213472999543505,2.4605323345215505e-08,0.00010632053739257141,6.218073627232465e-09,-5.931736552954592,73.80933779246227,109.68940032399969,8.796921975882414,-12999.72910308423,95.93173655295459,16.190662207537727,-19.68940032399969,8.796921975882414,0.0006304652175818005,2.5386549421507725e-08,0
2024-02-06 10:42:03.813476,-0.5049036145210266,8.982976913452148,2.340264081954956,0,9.0105e-05,-4.875866139727113e-07,-5.453735510110183e-10,0.0007597397507581072,3.5596704638310605e-08,0.00014437036796219633,8.213197197498385e-09,-3.2170226099662576,75.39776695909265,102.17475146047855,9.296539025941813,5544.831586031841,93.21702260996626,14.602233040907358,-12.174751460478545,9.296539025941813,0.0007733353281521781,3.6536001719157244e-08,0
2024-02-06 10:42:03.889170,0.1914326548576355,9.047585487365724,3.4098939895629883,0,7.5694e-05,1.7711283858818547e-06,-5.546221112485097e-10,0.0006298205333790139,2.5584228010960572e-08,0.00010293760397787376,6.4312196056842085e-09,1.212107570878606,69.34935555307979,86.78676759363574,9.670720067947087,4943.338203890322,88.7878924291214,20.650644446920218,3.2132324063642583,9.670720067947087,0.0006381795918660283,2.6385998450307737e-08,0
2024-02-06 10:42:03.963663,0.205790102481842,9.394556999206545,3.6850783824920654,0,7.4493e-05,1.5325961200995004e-06,-5.566059978143515e-10,0.0006187460268158273,2.4834463791563577e-08,9.867707306845473e-05,6.310149992117889e-09,1.2548775813595536,68.58207047599343,86.8036852739049,10.09355504580673,5676.170618174084,88.74512241864045,21.417929524006574,3.196314726095101,10.09355504580673,0.0006265669631416877,2.5629638994225233e-08,0
2024-02-06 10:42:04.039140,0.2823631465435028,9.449594497680664,3.486467123031616,0,7.5477e-05,1.7727675186199675e-06,-5.549797589041015e-10,0.0006280173493522957,2.5447871372638287e-08,0.00010220547345717234,6.408984205008496e-09,1.7115447798323162,69.74825130710137,85.36981620430011,10.076210503810596,-229.79903806633664,88.28845522016769,20.251748692898648,4.630183795699888,10.076210503810596,0.000636282085711018,2.624837592063907e-08,0
2024-02-06 10:42:04.113449,-0.4187589287757873,10.483330726623535,3.3069989681243896,0,7.4309e-05,1.8524226554436216e-06,-5.570968699657547e-10,0.000616376521021302,2.4721145352340107e-08,9.823808925993723e-05,6.291925164381704e-09,-2.2874762589614006,72.49195948584128,97.21684485393361,11.000537456841569,12438.963692567148,92.2874762589614,17.508040514158715,-7.216844853933612,11.000537456841569,0.0006241587693187218,2.551536217121427e-08,0
2024-02-06 10:42:04.188418,-0.588655412197113,9.076300621032717,2.424015998840332,0,7.496899999999999e-05,1.519975922922566e-06,-5.559839784348939e-10,0.0006228311993660286,2.5130083900067924e-08,0.00010012932419903558,6.357386410823165e-09,-3.710795989585021,75.046960469754,103.64965605738004,9.412842382633512,-21178.021238219222,93.71079598958502,14.953039530245997,-13.649656057380039,9.412842382633512,0.0006308303217150295,2.592771869997915e-08,0
2024-02-06 10:42:04.264152,-2.163188934326172,8.478073120117188,2.1129379272460938,0,7.573399999999999e-05,4.6739546037741375e-07,-5.552238088807816e-10,0.0006295457473220184,2.56091180821761e-08,0.00010186470907576363,6.434649128550775e-09,-14.313675621461988,76.00561901243277,135.67328173133046,9.001200857665593,-5435.359613488253,104.313675621462,13.99438098756723,-45.67328173133045,9.001200857665593,0.0006377338672086068,2.641098089492979e-08,0
2024-02-06 10:42:04.339158,-1.706143498420715,9.04519271850586,1.462066888809204,0,7.5006e-05,1.875832465897249e-06,-5.560767438459456e-10,0.0006231672785567598,2.5153130540756238e-08,0.00010056340732271953,6.3609652941817286e-09,-10.681874619643175,80.81811501371133,139.40532340330174,9.320089942670453,4251.514345583826,100.68187461964317,9.181884986288676,-49.40532340330171,9.320089942670453,0.000631232108422594,2.5950935952661805e-08,0
2024-02-06 10:42:04.429158,-1.5099250078201294,9.956890106201172,2.8212387561798096,0,8.999999999999999e-05,-2.223503312539034e-05,-7.087096711901652e-10,0.0007656258934935883,3.5564912951617686e-08,0.00013267534974320213,8.10955625590494e-09,-8.622990647165619,74.18016741406983,118.15565844006622,10.458437848721882,12648.3100672381,98.62299064716562,15.819832585930179,-28.155658440066215,10.458437848721882,0.0007773545869906626,3.6484657122163954e-08,0
2024-02-06 10:42:04.489163,-1.3926725387573242,9.47830867767334,2.2301902770996094,0,6.0005000000000006e-05,2.1296673579405e-05,-6.9463662389925e-10,0.0004741464997324304,1.697142648421048e-08,5.691654281659408e-05,5.266151847239398e-09,-8.358807018905413,76.7594800848128,121.98327537719278,9.836240179130241,-10369.097068438306,98.35880701890541,13.240519915187205,-31.983275377192776,9.836240179130241,0.00047802504574578154,1.7783255951214502e-08,0
2024-02-06 10:42:04.579187,-1.524282455444336,8.77718734741211,2.010042905807495,0,9.0024e-05,-2.2485362406064816e-05,-7.124782488430005e-10,0.0007481523673209504,3.53175213292482e-08,0.00012056032277543827,7.929990861343007e-09,-9.851962417024067,77.10124888454703,127.17425335937784,9.132509360451468,-7817.146746187383,99.85196241702407,12.898751115452962,-37.17425335937784,9.132509360451468,0.0007581374200487616,3.620386295905396e-08,0
2024-02-06 10:42:04.654158,-1.318492412567139,7.779344081878662,1.742037057876587,0,7.4971e-05,-1.089217361976443e-06,-5.350441742188379e-10,0.0006235396335183933,2.4993481484930877e-08,9.232029292877001e-05,6.327744907245283e-09,-9.61943796602805,77.37792237858842,127.12091972533797,8.08030381218881,-14034.834112692362,99.61943796602806,12.622077621411583,-37.120919725337956,8.08030381218881,0.000630337923219893,2.578760835395785e-08,0
2024-02-06 10:42:04.729591,-1.110309362411499,7.200260639190674,2.5604116916656494,0,7.5433e-05,-1.650270571996504e-06,-5.356769959315856e-10,0.0006269999222089603,2.5282356122303893e-08,9.331415858991425e-05,6.370626465546098e-09,-8.76619308157584,70.42462052238697,113.44371832486934,7.7221919286790115,-4747.416694414883,98.76619308157585,19.575379477613023,-23.44371832486933,7.7221919286790115,0.0006339078466436164,2.6078139552170586e-08,0
2024-02-06 10:42:04.804629,-0.8877689242362976,7.0854010581970215,2.2804415225982666,0,7.5038e-05,-1.2556501103835653e-06,-5.351030765968155e-10,0.0006241785040237263,2.503524838312294e-08,9.235809008009713e-05,6.333956196433771e-09,-7.141686615016573,72.15919072837836,111.27081138313254,7.496096007678227,-3013.0856499478255,97.14168661501657,17.84080927162164,-21.270811383132546,7.496096007678227,0.0006309757509966131,2.5829614747525465e-08,0
2024-02-06 10:42:04.879609,-1.072022795677185,6.803037643432617,1.356778860092163,0,7.498e-05,-1.1988161505060825e-06,-5.350318970752497e-10,0.000623775739301379,2.4999057710066518e-08,9.225261068899912e-05,6.3286024861114686e-09,-8.955032329998035,78.72107605452935,128.313090482505,7.019359153626899,-6358.186903858726,98.95503232999803,11.278923945470664,-38.31309048250498,7.019359153626899,0.0006305617767356984,2.5793223043065795e-08,0
2024-02-06 10:42:04.969160,-0.9093050956726074,7.707557201385498,2.782952070236206,0,8.955100000000001e-05,-1.5633780502935002e-05,-6.576657799938948e-10,0.0007294926780433015,3.485829476463119e-08,0.00012241262038190646,7.892546027078552e-09,-6.728413478731572,70.14697207212465,108.09434790369926,8.24488301887162,13685.205807246384,96.72841347873158,19.853027927875342,-18.09434790369925,8.24488301887162,0.0007398573051882143,3.5746685454257746e-08,0
2024-02-06 10:42:05.029159,-1.6271774768829346,9.21030330657959,3.7903664112091056,0,5.9999e-05,2.1845285989145697e-05,-7.49446985058144e-10,0.00047951437117760927,1.6994006605343003e-08,2.5285266500070492e-05,5.7101620505104605e-09,-10.019018740342478,67.63109649841351,113.23350537849754,10.091792262610653,30782.33376788001,100.01901874034247,22.368903501586484,-23.23350537849754,10.091792262610653,0.0004806772237039999,1.7943352025999607e-08,0
2024-02-06 10:42:05.103952,-2.0626866817474365,9.734350204467772,3.960262775421143,0,7.4793e-05,-5.448639192243161e-06,-6.28160988701456e-10,0.0006196479731988266,2.5124510466695498e-08,8.261667059357444e-05,6.5083126791921524e-09,-11.963878479065286,67.86184617928764,117.51256959281334,10.709618644035201,8260.484021560145,101.9638784790653,22.138153820712358,-27.51256959281334,10.709618644035201,0.0006251550308670867,2.596138953039593e-08,0
2024-02-06 10:42:05.193809,-3.4170727729797363,10.043035507202148,4.364664554595947,0,8.9857e-05,-4.672218740524824e-05,-1.0211116546337613e-09,0.0007686112423791245,3.558087887842863e-08,0.00014532002324326316,8.225131857171213e-09,-18.790513707142324,66.51041982912987,128.05720386369816,11.471235557206066,8475.877373725643,108.79051370714234,23.489580170870134,-38.05720386369815,11.471235557206066,0.0007836224306787899,3.653346965236795e-08,0
2024-02-06 10:42:05.268924,-4.627884387969971,8.284247398376465,5.099287033081055,0,7.5115e-05,1.2577191828112062e-05,-7.694288922346905e-10,0.0006335208400821045,2.5245763298606908e-08,7.556123609049597e-05,6.597016094622074e-09,-29.189326946984373,58.386033776573065,132.22547637330072,10.772594725119477,-9300.949638375678,119.18932694698438,31.61396622342693,-42.22547637330074,10.772594725119477,0.0006381350491644698,2.6104811945352062e-08,0
2024-02-06 10:42:05.344193,-3.548682689666748,4.290484428405762,4.230661392211914,0,7.5269e-05,1.1947596163134039e-05,-7.675404835593646e-10,0.0006344890944327667,2.534340006356455e-08,7.627964211924353e-05,6.608707842244224e-09,-39.59433312701933,45.402240643701845,129.98995526532534,6.992846436029122,-50216.53388633242,129.59433312701933,44.597759356298155,-39.989955265325335,6.992846436029122,0.0006391695704662649,2.6202138548598024e-08,0
2024-02-06 10:42:05.418928,1.837753415107727,26.93218040466309,-17.796056747436523,0,7.4735e-05,1.2404414279441302e-05,-7.740424703475323e-10,0.0006261526429223373,2.5006808719690734e-08,7.990160267908853e-05,6.567007449883069e-09,3.9036031377069196,123.45564985386227,-84.10410988756628,32.33294472704334,339066.01045044785,86.09639686229308,-33.45564985386227,174.10410988756627,32.33294472704334,0.0006313519365955338,2.5866294882257913e-08,1
2024-02-06 10:42:05.493949,-0.9140908718109132,12.062649726867676,-1.8951832056045528,1,7.5021e-05,1.2536498023132748e-05,-7.704759198882642e-10,0.0006317289036311463,2.5186685780847885e-08,7.708575536580361e-05,6.589456642083489e-09,-4.333512478483479,98.92884701509004,-115.74909277103289,12.244786643214098,-267767.1329871535,94.33351247848347,-8.928847015090033,-154.25090722896712,12.244786643214098,0.0006365381254457667,2.604580028726687e-08,0
2024-02-06 10:42:05.568750,6.604426383972168,7.628591060638428,-3.9315478801727295,1,7.4801e-05,1.1910561116795026e-05,-7.731650963936561e-10,0.0006295628671445206,2.5047943686062566e-08,7.77266957852391e-05,6.572427272456875e-09,40.88426355710771,117.26522574436125,-30.764908324224102,10.829169781929311,-18925.10609864557,49.1157364428923,-27.26522574436124,120.76490832422411,10.829169781929311,0.0006344546511698353,2.5907413367956632e-08,0
2024-02-06 10:42:05.644122,-2.297191858291626,12.04829216003418,-0.3254354894161224,1,7.5372e-05,1.3140276573876803e-05,-7.660130822329694e-10,0.0006351806173040226,2.540902795087262e-08,7.65113270332215e-05,6.616462227971545e-09,-10.79475617274794,91.54723566788839,-171.93675441725867,12.269651285391689,19111.626379323592,100.79475617274794,-1.5472356678883936,-98.06324558274133,12.269651285391689,0.0006399070765599813,2.626752843083171e-08,0
2024-02-06 10:42:05.719124,1.4716384410858154,7.317512989044189,-3.247176170349121,1,7.5002e-05,1.3293003956059878e-05,-7.709032391310076e-10,0.0006315979433514431,2.517467391715136e-08,7.717226019027805e-05,6.588030764335197e-09,11.371172497925407,113.92944959102287,-65.61969988439898,8.139770827695033,-55063.60440650457,78.6288275020746,-23.929449591022863,155.619699884399,8.139770827695033,0.0006364339900907434,2.6033836597605637e-08,0
2024-02-06 10:42:05.793483,-1.9191123247146609,3.287855625152588,-2.7374868392944336,1,7.4359e-05,1.3436866809646553e-05,-7.794968925821823e-10,0.0006281883173419789,2.4769652634338426e-08,7.909632934787845e-05,6.53779041279868e-09,-30.27199233234754,129.78095306896608,-125.03233687573353,4.689010654928121,-46406.75873487959,120.27199233234755,-39.78095306896608,-144.9676631242665,4.689010654928121,0.00063329088162622,2.562978756277578e-08,0
2024-02-06 10:42:05.869126,6.731250286102295,7.173938274383545,-6.865253448486328,1,7.564300000000001e-05,1.6526259380857437e-05,-7.602605655678786e-10,0.0006349047890254812,2.5580558408626343e-08,7.293137008312316e-05,6.635392195833384e-09,43.176537538061694,133.74041976347164,-45.56467215510518,11.996117108913651,96599.90288573338,46.82346246193831,-43.74041976347164,135.56467215510517,11.996117108913651,0.0006392935109312589,2.643806714223315e-08,1
2024-02-06 10:42:05.959104,5.417543888092041,7.741057872772217,-13.632397651672363,1,8.9978e-05,0.00010360274162439528,1.0076404913726967e-10,0.00074180802391022,3.544814749534297e-08,-7.398554417726415e-05,6.627836403013629e-09,34.98607556786208,150.41023840753172,-68.32702162925085,16.58662185323866,51018.07935634277,55.01392443213792,-60.410238407531715,158.32702162925085,16.58662185323866,0.0007526529965109304,3.606257796706028e-08,0
2024-02-06 10:42:06.034097,3.3835721015930176,8.329712867736816,-11.722856521606444,1,7.4993e-05,3.766038007168001e-05,-9.57649890170574e-10,0.0006213977741369561,2.523432805347451e-08,0.00011598869771602722,6.313127775124447e-09,22.107241654471334,144.604181701248,-73.90025521987035,14.773558868863983,-24176.429591757606,67.89275834552868,-54.60418170124799,163.90025521987033,14.773558868863983,0.0006332510370519474,2.6029675140645957e-08,0
2024-02-06 10:42:06.109087,7.997098922729492,5.199789047241211,-11.359134674072266,1,7.499e-05,3.7643309065143485e-05,-9.577628457042795e-10,0.0006213774798840836,2.5232463890593475e-08,0.00011602332070282081,6.312779757096818e-09,56.967698209952026,155.40345635754443,-54.85355029092164,14.833116255845962,794.2043870113184,33.032301790047974,-65.40345635754441,144.85355029092165,14.833116255845962,0.0006332364504443647,2.602778768778335e-08,0
2024-02-06 10:42:06.183417,3.304605960845948,4.649420261383057,-6.616390705108643,1,7.432999999999999e-05,3.391374645356353e-05,-9.813766740254532e-10,0.0006181272408122376,2.4823427332763683e-08,0.00012195524407795061,6.234246830719162e-09,35.403561323075486,144.90380854296208,-63.45982058511476,8.735797346897757,-82030.39027240961,54.59643867692452,-54.90380854296206,153.45982058511476,8.735797346897757,0.0006309552358058209,2.5613111452294357e-08,0
2024-02-06 10:42:06.274138,20.78958511352539,3.364428758621216,-2.115330696105957,1,9.0721e-05,0.000231377689403574,1.1928192885417188e-09,0.0006838047404556826,3.549341088524494e-08,5.03944213342963e-05,7.646738513605232e-09,80.80738346345541,122.15897066564652,-5.809824548714139,21.166030662791787,137016.05268784548,9.192616536544591,-32.15897066564652,95.80982454871413,21.166030662791787,0.0007236464301888174,3.632736770011549e-08,1
2024-02-06 10:42:06.334114,14.099014282226562,-0.8734114766120911,-1.9430413246154783,1,5.9976e-05,-0.0003049473048076229,2.3237682013404606e-09,0.0006455115772879973,1.5058495790730218e-08,0.00011278174522283657,5.138312893205707e-09,93.54485232502799,-155.7957294710841,-7.846731891610515,14.259048387850775,-115162.43622350626,-3.5448523250279877,-114.20427052891593,97.84673189161053,14.259048387850775,0.0007227709022766344,1.607981509599799e-08,0
2024-02-06 10:42:06.408692,7.071043491363525,1.115095138549805,0.339792937040329,1,7.4578e-05,-0.00015038471300264167,-1.0006108606922811e-09,0.0006472761097038045,2.4497138693457366e-08,0.0001010764287451504,6.69969142134598e-09,81.03832648063076,73.05291880813883,2.7511832221975006,7.166488154238055,-95102.58029999088,8.961673519369244,16.94708119186118,87.2488167778025,7.166488154238055,0.0006721594814819262,2.5416468901133343e-08,0
2024-02-06 10:42:06.483939,7.652520179748535,0.1627177447080612,0.7322298884391785,1,7.524699999999999e-05,-0.00014545968095465477,-1.0995708104709952e-09,0.0006477035381132543,2.4930309385652167e-08,0.0001014350203802733,6.767431501078433e-09,88.78188686624306,12.52880709186202,5.465695385976039,7.689193896334328,6946.5326470991895,1.2181131337569417,77.47119290813798,84.53430461402397,7.689193896334328,0.0006715411047935965,2.5855898962390865e-08,0
2024-02-06 10:42:06.558675,9.27969741821289,1.3448143005371094,-0.2680056989192962,1,7.4736e-05,-0.00014978586255093388,-1.024135574105318e-09,0.0006473183636756942,2.4599431289745092e-08,0.00010131641109985097,6.715628510335262e-09,81.75409876724417,101.27071573895857,-1.6542918898137426,9.380465699056169,22629.948120341476,8.24590123275583,-11.270715738958568,91.65429188981375,9.380465699056169,0.0006721025842310529,2.5520198661880862e-08,0
2024-02-06 10:42:06.634078,8.24596118927002,2.677664041519165,-0.6389064788818359,1,7.5403e-05,-0.00014394105540533833,-1.1220935012437346e-09,0.0006486598602027699,2.503164002740856e-08,0.0001010139558885543,6.783105687725895e-09,72.010126479275,103.42018447830145,-4.4304906063420155,8.693328599733785,-9112.861548245868,17.989873520725006,-13.420184478301449,94.43049060634202,8.693328599733785,0.0006720732556453458,2.5958671365425375e-08,0
2024-02-06 10:42:06.724152,9.191160202026367,3.436216115951538,-0.8686256408691406,1,9.0074e-05,-1.6031051439483596e-05,-2.2955688910039263e-09,0.0006935082280978963,3.48771140391381e-08,8.9955454024121e-05,8.183961794140325e-09,69.5011915956515,104.18635455165172,-5.398796415503521,9.850863797597334,12850.935873432387,20.498808404348498,-14.186354551651714,95.39879641550353,9.850863797597334,0.0006995017089031484,3.589791011856174e-08,0
2024-02-06 10:42:06.799143,8.006670951843262,3.2902486324310303,-3.08206558227539,1,7.4991e-05,-0.00014572849508639145,-1.0756592708790393e-09,0.0006427805941979692,2.479949188579383e-08,0.00011974959188346548,6.602471190428261e-09,67.66035660185456,133.1288165069814,-21.05357236837478,9.188669329546661,-8830.319212314454,22.339643398145448,-43.128816506981394,111.05357236837479,9.188669329546661,0.0006698833117147309,2.568588068338357e-08,0
2024-02-06 10:42:06.873917,9.590775489807127,3.642006158828736,-4.936569213867188,1,7.4774e-05,-0.00014763781802531052,-1.0438290259064193e-09,0.0006420284445531175,2.4660090105089336e-08,0.00012061961375884696,6.57639113161607e-09,69.20620083375834,143.5815563298112,-27.235810979529546,11.38494176358109,29372.140503843963,20.79379916624166,-53.58155632981121,117.23581097952956,11.38494176358109,0.0006697361720482952,2.5543268063081676e-08,0
2024-02-06 10:42:06.948612,7.879846572875977,4.412522315979004,-4.840853214263916,1,7.4695e-05,-0.00014832790759678648,-1.032138379744347e-09,0.0006417102906783627,2.4609382425047696e-08,0.00012100582194475813,6.5668469269057776e-09,60.75223515172478,137.65028117039765,-31.563796926812348,10.246765101393086,-15237.655294035794,29.247764848275217,-47.65028117039767,121.56379692681236,10.246765101393086,0.0006696533986168337,2.5491380730329213e-08,0
2024-02-06 10:42:07.024138,8.40389347076416,2.940884113311768,-5.441473007202148,1,7.5526e-05,-0.00014156201360865408,-1.1525876420052064e-09,0.0006447656310497329,2.5143913170525714e-08,0.00011673351539973902,6.665627621572415e-09,70.71286073020234,151.61066913860722,-32.92282627416846,10.434742609379093,2488.9112091995753,19.287139269797674,-61.61066913860722,122.92282627416846,10.434742609379093,0.0006703650022916457,2.6037961121964e-08,0
2024-02-06 10:42:07.099137,8.049742698669434,2.699200391769409,-4.874353885650635,1,7.499899999999999e-05,-0.00014589754673929986,-1.07684204785352e-09,0.0006432794687826441,2.480451328671988e-08,0.00011945173578600575,6.603392807884971e-09,71.46291909801458,151.02426621083168,-31.196127530847328,9.789962516387252,-8597.182535658354,18.537080901985423,-61.024266210831684,121.19612753084732,9.789962516387252,0.0006703456468748915,2.5691015253631287e-08,0
2024-02-06 10:42:07.173839,8.05452823638916,3.3548572063446045,-4.924604892730713,1,7.4702e-05,-0.00014828903097315597,-1.0331553410632223e-09,0.0006423804412293241,2.461359279008311e-08,0.00012090688116459532,6.567699553267808e-09,67.38738599109121,145.73558964723557,-31.441958938085758,10.01909303955502,3067.260892181846,22.612614008908796,-55.73558964723557,121.44195893808576,10.01909303955502,0.0006702691563050536,2.5495706254520445e-08,0
2024-02-06 10:42:07.248797,8.111958503723145,3.366821765899658,-4.364664554595947,1,7.4958e-05,-0.00014621972067042164,-1.0708524612735991e-09,0.0006432408161377714,2.4778152311026095e-08,0.00011971785467533755,6.598499519455319e-09,67.45938695342072,142.35406793421936,-28.282611647831853,9.807632550397072,-2821.0529784405744,22.54061304657928,-52.354067934219366,118.28261164783186,9.807632550397072,0.0006704262218817128,2.566405565865371e-08,0
2024-02-06 10:42:07.323914,8.312962532043457,3.3261423110961914,-5.08732271194458,1,7.5117e-05,-0.00014491393944807813,-1.0939975872530212e-09,0.0006437729067818927,2.4880469901998215e-08,0.00011896642168764753,6.617474919426178e-09,68.19290278522591,146.82294065483532,-31.465577459975552,10.298029962487478,6528.447782664456,21.807097214774103,-56.822940654835314,121.46557745997555,10.298029962487478,0.0006705196602948581,2.5768693943900008e-08,0
2024-02-06 10:42:07.398958,7.709949970245361,3.47210955619812,-4.3239850997924805,1,7.5044e-05,-0.00014549877575441175,-1.0833975231481288e-09,0.0006435247705887364,2.483348353677418e-08,0.00011930993442277598,6.608777832428146e-09,65.75599066339113,141.23594232885497,-29.28509428803525,9.497142752278505,-10672.235091532611,24.244009336608876,-51.23594232885499,119.28509428803525,9.497142752278505,0.0006704691525784654,2.5720645388535477e-08,0
2024-02-06 10:42:07.488920,8.463715553283691,3.484074115753174,-5.1399664878845215,1,8.9962e-05,-2.485940461440848e-05,-2.3540991905191595e-09,0.0006954109445978211,3.482060503635072e-08,4.871831953029318e-05,7.86210057866409e-09,67.62556787771271,145.86901600318873,-31.270072609470954,10.4972619719398,11117.129673209745,22.374432122287292,-55.86901600318873,121.27007260947096,10.4972619719398,0.0006975584896781578,3.5774696974333215e-08,0
2024-02-06 10:42:07.563915,8.12631607055664,3.5462896823883057,-4.338342189788818,1,7.499500000000001e-05,-0.00014901090627141754,-1.052940719005081e-09,0.0006427992171144294,2.4806109291177094e-08,0.00011964924251966159,6.602121928063255e-09,66.42374882978147,140.736416478773,-28.0961237018813,9.870886299907548,-8352.232442592858,23.576251170218523,-50.736416478773016,118.09612370188131,9.870886299907548,0.0006706049693718959,2.5691238901161914e-08,0
