timestamp,ax,ay,az,fall_state,time_interval,vx,dx,vy,dy,vz,dz,angle_xy,angle_yz,angle_zx,g_force,jerk,orientation_xy,orientation_yz,orientation_zx,magnitude_acceleration,magnitude_velocity,magnitude_displacement,impact_detection
2024-02-06 10:30:55.165012,-0.9978426694869996,9.65299129486084,-0.4857603311538696,0,0.0,0.0,0.0,0.0,0.0,0.0,0.0,-5.901779796124941,92.88082298326403,-154.04269267825623,9.71657830879939,inf,95.90177979612494,-2.8808229832640277,-115.95730732174377,9.71657830879939,0.0,0.0,1
2024-02-06 10:30:55.239608,-1.0098072290420532,9.667348861694336,-0.3804723918437958,0,7.4596e-05,-7.48813259153366e-05,-2.792923693990225e-09,0.000720610047159195,2.6877313538943655e-08,-3.230874810236692e-05,-1.2050516867220815e-09,-5.963230750224122,92.25379447468136,-159.35473225974187,9.72738936685911,144.92812027080453,95.96323075022411,-2.253794474681362,-110.64526774025812,9.72738936685911,0.000725210251059345,2.704889194401145e-08,0
2024-02-06 10:30:55.314809,-0.8159816861152649,9.571632385253906,-0.5025107264518738,0,7.5201e-05,-7.54336270621717e-05,-2.838393967265921e-09,0.0007264298389863967,2.7315043104502697e-08,-3.257585049565136e-05,-1.224679277797982e-09,-4.872683965636648,93.0052695162475,-148.37375165965994,9.619484895809967,-1434.8808001109578,94.87268396563665,-3.005269516247487,-121.62624834034006,9.619484895809967,0.0007310620555719412,2.7489414316200333e-08,0
2024-02-06 10:30:55.389846,-0.9451987147331238,9.571632385253906,-0.4594383537769317,0,7.503700000000001e-05,-7.528921026930214e-05,-2.8260346946047408e-09,0.0007248600912752152,2.719603733022125e-08,-3.24969706710726e-05,-1.2193433064623108e-09,-5.639673877293137,92.74808817578207,-154.076728498079,9.629155244864203,128.87440934786872,95.63967387729315,-2.748088175782072,-115.923271501921,9.629155244864203,0.0007294838382097885,2.7369649553125667e-08,0
2024-02-06 10:30:55.464786,-0.904519259929657,9.480701446533203,-0.3972227573394775,0,7.494000000000001e-05,-7.519949894753099e-05,-2.8187359922077246e-09,0.0007239360530843735,2.712577071721981e-08,-3.245542260718346e-05,-1.2161931153883154e-09,-5.449886347982627,92.39917733479402,-156.29115449960827,9.53203236087818,-1296.0085933549872,95.44988634798263,-2.3991773347940204,-113.70884550039173,9.53203236087818,0.0007285545470683382,2.729893469150152e-08,0
2024-02-06 10:30:55.539790,-0.923662543296814,9.475915908813477,-0.0693943351507186,0,7.5004e-05,-7.525800076523423e-05,-2.8235506321985323e-09,0.0007245426648397445,2.7172122036193376e-08,-3.247035435414314e-05,-1.2182707402510776e-09,-5.567304033699886,90.41958281283632,-175.7034665850669,9.52107926542705,-146.0334842292454,95.56730403369988,-0.41958281283631343,-94.2965334149331,9.52107926542705,0.0007291640170525022,2.7345581685510482e-08,0
2024-02-06 10:30:55.614640,-1.0839873552322388,9.36823558807373,0.0765730589628219,0,7.485e-05,-7.51034117230475e-05,-2.811972803436935e-09,0.0007230916651744841,2.7060654192782282e-08,-3.2470907115876676e-05,-1.213270263117886e-09,-6.600274690146008,89.53169245571078,175.95932808748293,9.431051375817729,-1202.7774162901871,96.60027469014601,0.46830754428922594,-85.95932808748292,9.431051375817729,0.0007277062858778793,2.723340267245319e-08,0
2024-02-06 10:30:55.704236,-0.8470894694328308,9.425664901733398,0.3230426013469696,0,8.9596e-05,-8.934124115130305e-05,-4.0244232290795214e-09,0.000861659093485832,3.8745021536384796e-08,-2.9524540852412583e-05,-1.6703627009880828e-09,-5.135405805734361,88.03708958669385,159.12535275596002,9.469164479048713,425.388446258581,95.13540580573437,1.962910413306148,-69.12535275596002,9.469164479048713,0.0008667813733980598,3.8989265031987055e-08,0
2024-02-06 10:30:55.779047,-0.7154794931411743,8.693434715270996,-0.7968384027481079,0,7.4811e-05,-7.778995009547472e-05,-2.7889058977877166e-09,0.000727713649567127,2.6995583533365796e-08,-2.6022005390554667e-05,-1.2597348578869474e-09,-4.704903618177906,95.23708536120603,-131.92059925189932,8.759147760705867,-9490.806410057961,94.70490361817791,-5.237085361206029,-138.07940074810068,8.759147760705867,0.0007323220445041306,2.7168482812365894e-08,0
2024-02-06 10:30:55.854011,-0.0741801485419273,9.497451782226562,-2.457516670227051,0,7.496400000000001e-05,-7.785035905806348e-05,-2.800812381437963e-09,0.0007291052523841857,2.710703017936508e-08,-2.6270963553637284e-05,-1.2637352700111784e-09,-0.4475014044352021,104.50739949364757,-91.7289483137316,9.810529100644882,14025.149937823684,90.4475014044352,-14.507399493647569,-178.2710516862684,9.810529100644882,0.0007337201857559277,2.7280627961498533e-08,0
2024-02-06 10:30:55.929791,0.7681235074996948,10.60776138305664,-6.688178062438965,0,7.578e-05,-7.756723016760871e-05,-2.8642227578420365e-09,0.0007373081793556211,2.770532685951491e-08,-3.0002407004564957e-05,-1.2866948051989246e-09,4.141642449780235,122.23137142301734,-83.44840213328784,12.563691379428706,36330.98810746667,85.85835755021978,-32.23137142301735,173.44840213328783,12.563691379428706,0.000741983942526146,2.788269161901025e-08,0
2024-02-06 10:30:56.004672,1.742037057876587,10.74655055999756,-6.499138355255127,0,7.4881e-05,-7.869554734174534e-05,-2.7939826393515823e-09,0.0007277094161372183,2.7046801450340885e-08,-2.4074708274811512e-05,-1.262387141880845e-09,9.207666333788056,121.16408322191444,-74.99507983951965,12.679189304145101,1542.419635373398,80.79233366621195,-31.16408322191443,164.99507983951963,12.679189304145101,0.0007323479876975872,2.7220018901153357e-08,0
2024-02-06 10:30:56.079077,2.0985803604125977,9.753493309020996,-7.408443450927734,0,7.4405e-05,-7.960961428729817e-05,-2.75630601088387e-09,0.0007228304056963919,2.6701572972744488e-08,-2.076470380493999e-05,-1.2517153618058642e-09,12.142747385805189,127.21914882107725,-74.18423259415898,12.42657256140328,-3395.158157943976,77.85725261419482,-37.21914882107726,164.18423259415897,12.42657256140328,0.0007274975319616486,2.6872625725660198e-08,0
2024-02-06 10:30:56.154560,0.7537660598754883,10.28471851348877,-6.616390705108643,0,7.5483e-05,-7.80721995667629e-05,-2.841296508551208e-09,0.0007336310018687246,2.748660567142208e-08,-2.832408941504354e-05,-1.2781742213514352e-09,4.191707924663955,122.7540880412132,-83.50065346234872,12.252355860705602,-2308.0256574020264,85.80829207533606,-32.75408804121319,173.5006534623487,12.252355860705602,0.0007383169842887893,2.766261351582466e-08,0
2024-02-06 10:30:56.229615,0.825553297996521,9.31319808959961,-6.063629150390625,0,7.505499999999999e-05,-7.841017390934751e-05,-2.8078092806273203e-09,0.0007294370477156637,2.717350910881102e-08,-2.5610565165966676e-05,-1.266632205271099e-09,5.065650845513103,123.06731260950248,-82.24694234665502,11.143823193923245,-14769.604513787992,84.9343491544869,-33.06731260950247,172.24694234665503,11.143823193923245,0.0007340861414035534,2.734753640433526e-08,0
2024-02-06 10:30:56.305780,0.1722893863916397,8.33210563659668,-5.599404811859131,0,7.6165e-05,-7.785637121951207e-05,-2.894537213173838e-09,0.0007392301912837026,2.7988619426455672e-08,-3.208354901501534e-05,-1.2986524386415442e-09,1.1845802937314738,123.90218946897846,-88.23760889900193,10.040269031213285,-14488.9931426503,88.81541970626853,-33.90218946897848,178.23760889900194,10.040269031213285,0.0007440109168299944,2.8167848005018232e-08,0
2024-02-06 10:30:56.379594,-0.308685153722763,8.281854629516602,-5.228504180908203,0,7.381400000000001e-05,-7.769603799501434e-05,-2.7116853561421626e-09,0.0007197004809908865,2.6273646421196898e-08,-1.935534199401738e-05,-1.2381860222604264e-09,-2.1345669464718786,122.26505549805435,-93.3787579817499,9.799064169518893,-3267.7386633212127,92.13456694647189,-32.26505549805433,-176.62124201825011,9.799064169518893,0.0007241409296002689,2.6442216971398396e-08,0
2024-02-06 10:30:56.514548,-0.0909305065870285,8.111958503723145,-4.314413070678711,0,0.00013495399999999998,-8.991228873068467e-05,-7.835471904146779e-09,0.0012208593484740254,8.559656040793922e-08,-0.00031108232237502925,-1.1339665422022179e-08,-0.6422266655348492,118.00665254421958,-91.20738625716973,9.188378489570274,-4525.139528643971,90.64222666553485,-28.006652544219584,-178.79261374283027,9.188378489570274,0.0012630732281682852,8.669921444577262e-08,0
2024-02-06 10:30:56.544078,-0.964341938495636,7.808059215545654,-3.8621537685394287,0,2.953e-05,-3.428676760548727e-05,-1.2886912465544842e-09,0.00038168337445592857,1.1233283968555043e-09,0.00011992086885383727,-1.2631628840131085e-09,-7.040716324399794,116.318695233265,-104.01953603203823,8.76424416704899,-14362.828395573477,97.0407163243998,-26.318695233264993,-165.98046396796178,8.76424416704899,0.0004015455086980261,2.125599277304267e-09,0
2024-02-06 10:30:56.619788,-1.277812957763672,7.073436260223389,-2.718343496322632,0,7.571e-05,-8.605812416011469e-05,-4.067454797422234e-09,0.0007252971049914359,2.6683507667295154e-08,-3.2022812991827735e-05,7.664032258406921e-10,-10.240017198915968,111.02192264835357,-115.176830716511,7.684770513585382,-14258.006253646912,100.24001719891598,-21.02192264835357,-154.82316928348902,7.684770513585382,0.0007310864188280516,2.7002613648760957e-08,0
2024-02-06 10:30:56.694795,-1.7970739603042605,7.492195129394531,-1.1462029218673706,0,7.500700000000001e-05,-8.497730140841382e-05,-4.007335845334897e-09,0.0007201772855579851,2.6175423419017035e-08,-3.066442492583396e-05,7.884377899687501e-10,-13.488119839232626,98.6980269896439,-147.46960866819776,7.789495735528974,1396.2059800230986,103.48811983923262,-8.698026989643909,-122.53039133180224,7.789495735528974,0.0007258214459110148,2.649213403806462e-08,0
2024-02-06 10:30:56.769666,-1.4022440910339355,8.336892127990723,-1.1964540481567385,0,7.4871e-05,-8.47597477809228e-05,-3.995793725990021e-09,0.0007191009076244828,2.6077552501880617e-08,-3.05051242518723e-05,7.925973193128346e-10,-9.54763854947376,98.16693635604075,-139.52778494792392,8.538241103057697,10000.472379542447,99.54763854947376,-8.166936356040747,-130.4722150520761,8.538241103057697,0.0007247212517898608,2.639381220096072e-08,0
2024-02-06 10:30:56.844748,-2.0985803604125977,8.583361625671387,-0.3326142132282257,0,7.5082e-05,-8.512908476055042e-05,-4.013716997823146e-09,0.0007208859943954942,2.6229471120043727e-08,-3.066644095344842e-05,7.861437191836732e-10,-13.738947148450551,92.2191608492982,-170.99382800534354,8.842441322451569,4051.5732052139233,103.73894714845055,-2.2191608492982047,-99.00617199465647,8.842441322451569,0.0007265425029470065,2.6546432930302225e-08,0
2024-02-06 10:30:56.919768,-1.4812101125717163,9.585989952087402,-1.454888105392456,0,7.502e-05,-8.50181112558879e-05,-4.008442434746637e-09,0.0007203227444965837,2.618479364913807e-08,-3.061102838157118e-05,7.880433207330588e-10,-8.783774735443828,98.63005263201173,-135.51364069126484,9.80825602022693,12874.096211348455,98.78377473544383,-8.630052632011717,-134.48635930873516,9.80825602022693,0.000725968298577277,2.650154790716895e-08,0
2024-02-06 10:30:56.994612,1.7563945055007937,10.11960792541504,-0.5072965025901794,0,7.484399999999999e-05,-8.504232748246567e-05,-3.9934771161376614e-09,0.0007185886518833634,2.6058169446256633e-08,-3.04383561360687e-05,7.934156665706113e-10,9.846366034639905,92.869838201924,-16.11021600641275,10.28342044091442,6348.730969583263,80.1536339653601,-2.86983820192399,106.11021600641276,10.28342044091442,0.0007242432889598982,2.6374335305119968e-08,0
2024-02-06 10:30:57.068974,2.802095413208008,11.665427207946776,-1.318492412567139,0,7.4362e-05,-8.614092355287446e-05,-3.952221952638145e-09,0.0007133384584162234,2.5713075012674443e-08,-2.99983410075158e-05,8.079809105822148e-10,13.506845526617663,96.44852571775539,-25.198767855745725,12.069480224542538,24018.44737403672,76.49315447338233,-6.448525717755396,115.19876785574574,12.069480224542538,0.0007191466578031073,2.6027583793395095e-08,0
2024-02-06 10:30:57.143967,1.560176134109497,11.361527442932127,-1.3639576435089111,0,7.4993e-05,-8.476462687969578e-05,-4.0061426537996215e-09,0.0007206034626085757,2.616548368875777e-08,-3.0844654000207795e-05,7.88784945657278e-10,7.819009755458477,96.84562870751996,-41.16102978362034,11.548975532887368,-6940.710355035395,82.18099024454152,-6.845628707519963,131.16102978362034,11.548975532887368,0.0007262270891215195,2.648214298956444e-08,0
2024-02-06 10:30:57.234780,1.306527853012085,9.12415885925293,-0.7106937170028687,0,9.0813e-05,-6.208899834156407e-05,-5.167754829299786e-09,0.0008826452412588595,3.884718093634918e-08,-4.725514626185597e-05,1.710155255843538e-10,8.149034707910701,94.45385703035788,-28.54424713809416,9.244586279491768,-25375.103271509586,81.8509652920893,-4.453857030357881,118.54424713809416,9.244586279491768,0.0008860873063531598,3.918977421454726e-08,0
2024-02-06 10:30:57.309301,1.2108114957809448,8.164602279663086,-0.7035149931907654,0,7.4521e-05,-8.259524467683209e-05,-3.989156985671931e-09,0.0007418109930212496,2.561436045190341e-08,-3.573500210861863e-05,8.470532742102398e-10,8.435489161985227,94.92481100495156,-30.15777341715769,8.283823284512964,-12892.513452299407,81.56451083801477,-4.924811004951566,120.15777341715769,8.283823284512964,0.0007472499676721982,2.5936968482567868e-08,0
2024-02-06 10:30:57.384219,1.1749178171157837,9.37541389465332,0.033500712364912,0,7.4918e-05,-8.212167740822208e-05,-4.021853294705815e-09,0.0007452926862318514,2.590955053223515e-08,-3.586799994336256e-05,8.328400783029214e-10,7.14301375032588,89.79526863757017,1.633245730868656,9.448806266971697,15550.107884069692,82.85698624967412,0.2047313624298275,88.36675426913135,9.448806266971697,0.0007506608231891193,2.6233065686316772e-08,0
2024-02-06 10:30:57.459813,1.2347406148910522,9.088264465332031,0.016750356182456,0,7.5594e-05,-8.130721285820379e-05,-4.077092259615866e-09,0.0007515334095175264,2.6415477752598434e-08,-3.585101508219355e-05,8.085990512242837e-10,7.736890399460405,89.89439968086823,0.7772206046553662,9.171772781328084,-3664.7549493824067,82.26310960053961,0.10560031913176722,89.22277939534463,9.171772781328084,0.0007567685404178949,2.674049323810395e-08,0
2024-02-06 10:30:57.534269,1.5075321197509766,8.844188690185547,0.1172524988651275,0,7.445599999999999e-05,-8.28675660442151e-05,-3.9836768104203894e-09,0.000741329843672037,2.556603856153357e-08,-3.5927262706715624e-05,8.494408912861732e-10,9.673355159503481,89.2404413788272,4.447384875109742,8.972517753015422,-2676.144680249564,80.32664484049653,0.7595586211728016,85.55261512489027,8.972517753015422,0.0007468117157801534,2.588848312449943e-08,0
2024-02-06 10:30:57.609037,1.4788172245025637,9.693670272827148,0.6389064788818359,0,7.4768e-05,-8.240169554651154e-05,-4.0094588152285435e-09,0.000744221749670267,2.5797784610094976e-08,-3.58093019061871e-05,8.382499872065601e-10,8.67387735548437,86.22910889102873,23.36621984790394,9.826614128505067,11423.287709844384,81.32612264451564,3.77089110897127,66.63378015209607,9.826614128505067,0.000749625478631978,2.6120951625484836e-08,0
2024-02-06 10:30:57.684423,1.9908995628356927,9.442415237426758,0.6939433217048645,0,7.5386e-05,-8.132955305922402e-05,-4.060051771047716e-09,0.0007501348000929355,2.6259540783971805e-08,-3.539745131780581e-05,8.162471004603463e-10,11.906219805908863,85.79676691965832,19.216392497988807,9.674938962031087,-2011.980559705786,78.09378019409114,4.203233080341689,70.7836075020112,9.674938962031087,0.0007553606384178871,2.6584088509814966e-08,0
2024-02-06 10:30:57.759789,1.868861198425293,9.38259220123291,0.9595561623573304,0,7.5366e-05,-8.136815066683664e-05,-4.058424794010455e-09,0.000749946550018549,2.6244539970470688e-08,-3.541398631264643e-05,8.16955214836651e-10,11.264964130366709,84.1606716515094,27.177973656987913,9.614906480165793,-796.545947314359,78.7350358696333,5.839328348490596,62.82202634301209,9.614906480165793,0.000755178624071297,2.6569044128333282e-08,0
2024-02-06 10:30:57.834057,1.2443121671676636,9.303627014160156,1.0696299076080322,0,7.4268e-05,-8.307728284454717e-05,-3.968144251012706e-09,0.0007396878156692982,2.5426730703708064e-08,-3.6528009465057413e-05,8.564513705186103e-10,7.617808245551073,83.44154921625774,40.68286154267998,9.447216337483844,-2257.905729007761,82.38219175444894,6.558450783742268,49.31713845732002,9.447216337483844,0.0007452343222436349,2.5748753601403675e-08,0
2024-02-06 10:30:57.909041,0.7178724408149719,9.23662567138672,1.5362470149993896,0,7.4984e-05,-8.23748207548894e-05,-4.027376104101304e-09,0.000746325226130724,2.595872337267247e-08,-3.559510552676396e-05,8.306312953515383e-10,4.444105994070089,80.55693557617688,64.95379910099128,9.390987675729127,-749.8754634951141,85.55589400592991,9.44306442382311,25.046200899008724,9.390987675729127,0.0007517007155716548,2.62824090557094e-08,0
2024-02-06 10:30:58.044025,0.9164838194847108,9.674527168273926,2.036364793777466,0,0.000134984,-3.3344132945898916e-05,-7.498944715124953e-09,0.0013136598113205433,8.775827449621048e-08,7.158324873654171e-05,1.9102755916448707e-09,5.411573713158212,78.11348429486357,65.76945486464747,9.928907296091747,3985.062084118269,84.58842628684178,11.886515705136446,24.230545135352525,9.928907296091747,0.0013160311898204832,8.809879719513067e-08,0
2024-02-06 10:30:58.074141,0.4450809061527252,9.65299129486084,2.158403158187866,0,3.0116e-05,-0.00010473641776997222,-2.588291188889672e-10,0.00030024070822453524,3.1350146543838456e-09,-0.00014836521405680849,5.936261161247739e-09,2.6399287218552905,77.396020483072,78.34844455327959,9.90136567070201,-914.5180432241197,87.36007127814472,12.603979516928018,11.651555446720417,9.90136567070201,0.00035089376857473436,6.718221935194212e-09,0
2024-02-06 10:30:58.149308,-0.1555390208959579,13.57496738433838,0.5431901216506958,0,7.5167e-05,-9.82143420336209e-05,-4.830396458844803e-09,0.0008234620914528371,2.8446982068516493e-08,-8.751047463180498e-05,6.230433356923775e-10,-0.6564538422647688,87.70858329678865,105.97872670490376,13.586720994453776,49028.89996609904,90.65645384226478,2.2914167032113513,-15.978726704903766,13.586720994453776,0.0008339028457867628,2.8860902649679377e-08,0
2024-02-06 10:30:58.224026,-0.3469716608524322,7.903775215148926,-0.6149773597717285,0,7.471800000000001e-05,-9.810152838556839e-05,-4.786323545935697e-09,0.0008186401137392524,2.8078330123450884e-08,-8.74943583968468e-05,6.623319207073082e-10,-2.513641303929643,94.44910905039266,-119.43179263177463,7.935253564825068,-75637.29529201407,92.51364130392965,-4.449109050392655,-150.56820736822536,7.935253564825068,0.0008291265334349616,2.8491054722158947e-08,0
2024-02-06 10:30:58.299786,-0.5766908526420593,9.961676597595217,-0.0550368875265121,0,7.575999999999999e-05,-9.8582756555099e-05,-4.888796058389783e-09,0.000827948014133692,2.8936202538072674e-08,-8.784343581968918e-05,5.709809299204946e-10,-3.3132087578866267,90.3165480486935,-174.54844878562318,9.978507004235945,26970.08235758814,93.31320875788663,-0.3165480486935024,-95.45155121437683,9.978507004235945,0.0008384109632003472,2.9351834072971042e-08,0
2024-02-06 10:30:58.374053,-0.6125844717025757,9.518988609313965,0.6532639265060425,0,7.4267e-05,-9.769496252547574e-05,-4.742274741096135e-09,0.0008134056975567343,2.7710931992295776e-08,-8.82900123042874e-05,7.024645489450427e-10,-3.6821319612078933,86.0740922823127,133.15936945991808,9.561022834241859,-5621.395370677236,93.6821319612079,3.9259077176873065,-43.15936945991808,9.561022834241859,0.0008239953038660493,2.8122559948272927e-08,0
2024-02-06 10:30:58.449757,-0.6987291574478149,8.997334480285645,0.7106937170028687,0,7.570399999999999e-05,-9.863714136802029e-05,-4.883339357743611e-09,0.0008267096756966115,2.88893548879783e-08,-8.731000873742626e-05,5.76295933826572e-10,-4.440652900224746,85.48362035590698,134.51362907996747,9.052366306385974,-6719.017857126249,94.44065290022476,4.516379644093022,-44.51362907996747,9.052366306385974,0.0008371387048592251,2.930484509649878e-08,0
2024-02-06 10:30:58.524051,-0.9212695956230164,9.12415885925293,1.3735291957855225,0,7.4294e-05,-9.749504224710536e-05,-4.745066168294949e-09,0.0008139340228922369,2.773270108047317e-08,-8.877938589094206e-05,7.004389570395707e-10,-5.765634837880451,81.43911101128282,123.85101067999418,9.27284179787288,2967.608306012689,95.76563483788046,8.560888988717188,-33.85101067999418,9.27284179787288,0.0008245457271998188,2.814443065497886e-08,0
2024-02-06 10:30:58.599067,-0.5742979645729065,9.303627014160156,1.86646831035614,0,7.5016e-05,-9.803494213633609e-05,-4.815652492657371e-09,0.0008205864535925391,2.8322762972484173e-08,-8.760974679122492e-05,6.367624801413086e-10,-3.5322945884054295,78.65606452692207,107.10272961192324,9.50636616822048,3112.994165879264,93.53229458840543,11.343935473077936,-17.102729611923237,9.50636616822048,0.0008310526129145361,2.8736298957619325e-08,0
2024-02-06 10:30:58.674379,-0.5025107264518738,9.502238273620604,1.9693633317947388,0,7.5312e-05,-9.819430982260776e-05,-4.844694421947294e-09,0.0008233697216551306,2.8566068486420827e-08,-8.704204370818659e-05,6.109140151473958e-10,-3.0271760944375417,78.29107102785876,104.3143770709393,9.717172488511107,2799.106653529685,93.02717609443755,11.70892897214124,-14.314377070939297,9.717172488511107,0.0008337602403526348,2.898041664205047e-08,0
2024-02-06 10:30:58.764393,-0.7824809551239014,9.79417324066162,3.0102784633636475,0,9.0014e-05,-0.00010764028367387128,-6.357784518739911e-09,0.0009652176426966192,4.171397420177054e-08,-5.04366968719773e-05,-3.9969220685738867e-10,-4.567800902817693,72.9149791431125,104.57080301997705,10.276180338054347,6210.232292123897,94.5678009028177,17.085020856887503,-14.570803019977037,10.276180338054347,0.000972509839967476,4.219759260376034e-08,0
2024-02-06 10:30:58.838987,-0.06460852175951,13.041349411010742,2.8619179725646973,0,7.4594e-05,-0.00010110922380710018,-4.748325816061622e-09,0.0007891557630522253,2.818775524344695e-08,-9.571133139298484e-05,7.271090910654693e-10,-0.2838483362656141,77.622668618568,91.2932470397652,13.351836697729755,41231.9537720917,90.28384833626562,12.377331381432006,-1.2932470397652023,13.351836697729755,0.0008013429680570187,2.859413980783927e-08,0
2024-02-06 10:30:58.915307,1.0002355575561523,8.822651863098145,0.7800880670547485,0,7.632e-05,-0.00010030177767520768,-4.922143510340854e-09,0.0008080243961517813,2.956612172084001e-08,-9.256828018079325e-05,5.646237862772985e-10,6.468080130445181,84.94711765106753,37.95082355933364,8.913371666232146,-58155.98835819718,83.53191986955483,5.052882348932474,52.04917644066636,8.913371666232146,0.0008194710232075856,2.9978356365350456e-08,0
2024-02-06 10:30:58.989610,1.7372512817382812,8.190924644470215,0.3661149442195892,0,7.4303e-05,-0.00010306253315263612,-4.717050602870973e-09,0.0007908662042438986,2.7953640550340964e-08,-9.372422591766343e-05,7.524997786775924e-10,11.974675975673218,87.44071774232543,11.900589836443622,8.381129321259262,-7163.133991533103,78.02532402432678,2.5592822576745626,78.09941016355639,8.381129321259262,0.0008030413870273781,2.8358823006687387e-08,0
2024-02-06 10:30:59.064772,1.541032791137695,9.672134399414062,0.3732936680316925,0,7.516200000000001e-05,-0.00010165451014333586,-4.804976572966594e-09,0.000798538388103247,2.8636289822754073e-08,-9.340664991870149e-05,6.721270675058724e-10,9.05267907720538,87.78978034376402,13.616809314190128,9.801240435081828,18894.003802753596,80.94732092279463,2.2102196562359833,76.38319068580988,9.801240435081828,0.000810383859017471,2.904439101572626e-08,0
2024-02-06 10:30:59.139043,1.0672370195388794,9.820494651794434,1.9621846675872805,0,7.427100000000001e-05,-0.00010281649434399228,-4.713884740467489e-09,0.0007898544218609337,2.792866082591503e-08,-9.444710551721974e-05,7.558159155525756e-10,6.20224823747635,78.7008067711702,61.45812295794064,10.071309683030897,3636.2678292882647,83.79775176252365,11.299193228829795,28.541877042059365,10.071309683030897,0.0008020981828822697,2.8333761885312997e-08,0
2024-02-06 10:30:59.214599,0.648478090763092,8.683863639831543,1.3759222030639648,0,7.555599999999999e-05,-0.00010171414738562327,-4.845295677778766e-09,0.0008017434720633032,2.8951262472761338e-08,-9.230237185282635e-05,6.358293763423223e-10,4.2707052866201245,80.99656731667238,64.76529518504586,8.816074719412969,-16613.306204906672,85.72929471337989,9.00343268332762,25.234704814954153,8.816074719412969,0.0008134236845729059,2.9360803258215543e-08,0
2024-02-06 10:30:59.289769,0.6317277550697327,9.562060356140137,1.9885066747665403,0,7.517e-05,-0.000101961227113869,-4.805986330500365e-09,0.0007982220087320807,2.8642469134967834e-08,-9.295170662624763e-05,6.715834134887829e-10,3.7798141196257347,78.25232464300477,72.37549229807811,9.787044344774543,12916.983176288071,86.22018588037426,11.747675356995233,17.62450770192189,9.787044344774543,0.000810058323099995,2.9050637979876013e-08,0
2024-02-06 10:30:59.364689,0.2895418703556061,9.36823558807373,2.086615800857544,0,7.492e-05,-0.00010207638581704718,-4.780481628884e-09,0.000795855721739054,2.8443209418658937e-08,-9.346109693570066e-05,6.94885013934027e-10,1.7702637568928057,77.44330369343274,82.09999997040451,9.602168402435387,-2467.644718888894,88.2297362431072,12.556696306567263,7.900000029595491,9.602168402435387,0.0008078000340472173,2.885051181210441e-08,0
2024-02-06 10:30:59.439759,0.1435744911432266,9.413700103759766,2.079437017440796,0,7.507e-05,-0.00010204390208993476,-4.795790650477024e-09,0.0007972643669159415,2.8562693425308065e-08,-9.314864297432828e-05,6.808892834407745e-10,0.8737876228754844,77.54369146060982,86.05028784571462,9.6417022142118,526.62597277759,89.12621237712452,12.456308539390179,3.949712154285378,9.6417022142118,0.000809147760545363,2.8970513869927194e-08,0
2024-02-06 10:30:59.529787,-1.0337363481521606,11.47638702392578,3.1442811489105225,0,9.0028e-05,-0.00010870142261850458,-6.371954933971442e-09,0.0009535013285439018,4.1656670061652234e-08,-5.408045480818676e-05,-4.202371388746557e-10,-5.147031082616339,74.6781856287305,108.19916636890756,11.944143916740835,25574.729001299973,95.14703108261635,15.321814371269495,-18.19916636890755,11.944143916740835,0.0009612000199784292,4.21432861741797e-08,0
2024-02-06 10:30:59.604136,-0.8303391337394714,10.959519386291504,1.019378900527954,0,7.4349e-05,-9.408800287821513e-05,-4.782187232789908e-09,0.0007776150402410034,2.8085583288562973e-08,-8.672146776575969e-05,6.835795331437974e-10,-4.332690916731658,84.6860310792245,129.16467496794257,11.038100452449239,-12186.357103546728,94.33269091673165,5.313968920775502,-39.164674967942574,11.038100452449239,0.0007880725322367707,2.849801018257941e-08,0
2024-02-06 10:30:59.679732,-1.1820966005325315,7.267261981964111,-0.4690099954605102,0,7.5596e-05,-9.534275655853373e-05,-4.90029731129872e-09,0.0007889794384241108,2.906235494601067e-08,-8.637831275345014e-05,5.756518199900703e-10,-9.238846425657576,93.69259811533797,-158.35874567051513,7.377697436418315,-48420.591248623256,99.23884642565758,-3.6925981153379666,-111.64125432948485,7.377697436418315,0.0007993997800839939,2.9478208286205085e-08,0
2024-02-06 10:30:59.754064,-0.4714028835296631,10.375649452209473,0.4714028835296631,0,7.433199999999999e-05,-9.429774488460641e-05,-4.780444514386655e-09,0.000777829118397713,2.807213193809927e-08,-8.637982505870984e-05,6.848349630873561e-10,-2.6013633583939297,87.39863664160607,135.0,10.397044912490033,40619.75294720603,92.60136335839394,2.6013633583939297,-45.0,10.397044912490033,0.0007882713214971474,2.8484491222976923e-08,0
2024-02-06 10:30:59.829741,-0.7130866050720215,9.239018440246582,1.42378032207489,0,7.5677e-05,-9.509431406569105e-05,-4.907810674030731e-09,0.0007910199825553898,2.912718295849024e-08,-8.510531435294076e-05,5.695112068330204e-10,-4.4134572118917825,81.23934202576868,116.60355607716312,9.375238911679915,-13502.20015077392,94.41345721189178,8.760657974231327,-26.60355607716311,9.375238911679915,0.0008012480614021268,2.9543251949035715e-08,0
2024-02-06 10:30:59.904741,-1.0624512434005735,8.659934043884277,1.8186101913452148,0,7.5e-05,-9.449329450398307e-05,-4.843635268529895e-09,0.0007849611871395115,2.859371333254851e-08,-8.620286354173348e-05,6.274990250503682e-10,-6.994427395425129,78.14006853039079,120.29392274901703,8.912384827704312,-6171.38778634138,96.99442739542513,11.85993146960921,-30.293922749017014,8.912384827704312,0.0007953137630548603,2.9007843763109112e-08,0
2024-02-06 10:30:59.979776,-0.904519259929657,9.315590858459473,2.0052568912506104,0,7.5035e-05,-9.452771648779135e-05,-4.846943136222252e-09,0.0007852757588253026,2.8621192479102902e-08,-8.613594586778804e-05,6.244830958857008e-10,-5.545883740408433,77.851982958707,114.2788981653498,9.571804601730305,8788.162511174694,95.54588374040844,12.148017041293011,-24.278898165349794,9.571804601730305,0.0007956210830248213,2.9035417955122936e-08,0
2024-02-06 10:31:00.054078,-0.667621374130249,8.975798606872559,2.017221450805664,0,7.430200000000001e-05,-9.395152694540839e-05,-4.777865493503984e-09,0.0007785719645862585,2.804804228847257e-08,-8.761018418015165e-05,6.881610525482702e-10,-4.253836373576267,77.33379351640494,108.31252315078653,9.223874528197,-4682.64748638402,94.25383637357626,12.66620648359506,-18.31252315078653,9.223874528197,0.0007890986870012902,2.8460397757659783e-08,0
2024-02-06 10:31:00.144644,-0.5360113978385925,9.174409866333008,2.6298060417175293,0,9.0566e-05,-0.000103739468647059,-6.3854886696619285e-09,0.000926169459890366,4.191099955231647e-08,-4.982055661095306e-05,-4.294257315649929e-10,-3.3436830427645066,74.00527255635878,101.52031943151412,9.55892171906096,3699.480940573289,93.34368304276451,15.994727443641231,-11.520319431514118,9.55892171906096,0.0009332919337751782,4.239682482785217e-08,0
2024-02-06 10:31:00.204793,-0.7537660598754883,10.416329383850098,3.5797905921936035,0,6.0149e-05,-8.412388818141441e-05,-3.5283688073360906e-09,0.0006282237020039563,1.827101114964667e-08,-0.0001442592070177905,2.5222363535827536e-09,-4.138930703269199,71.03363906227408,101.89058811793132,11.040062580884086,24624.530113935834,94.1389307032692,18.966360937725927,-11.890588117931308,11.040062580884086,0.0006500404349974828,1.8778735609577915e-08,0
2024-02-06 10:31:00.294718,-0.3661149442195892,10.179430961608888,1.5984625816345217,0,8.9925e-05,-0.00010079667657038193,-6.281466175360835e-09,0.0009348533820271496,4.154210277670178e-08,-6.716537376583738e-05,-6.254528051238986e-10,-2.0598207553286434,81.07579436828907,102.90061785178743,10.310671048938973,-8111.109612956501,92.05982075532864,8.924205631710938,-12.900617851787421,10.310671048938973,0.000942667493514197,4.201897561380683e-08,0
2024-02-06 10:31:00.369022,0.521653950214386,8.21963882446289,1.868861198425293,0,7.4304e-05,-0.00010201151397670429,-4.697432803092817e-09,0.000791147447463036,2.806117329796868e-08,-9.424690614999458e-05,6.352578071587073e-10,3.6313686557310314,77.19068686776686,74.40402368418658,8.44554482714831,-25101.289591282602,86.36863134426896,12.809313132233154,15.595976315813424,8.44554482714831,0.0008032453622212471,2.845872228825038e-08,0
2024-02-06 10:31:00.444733,2.0124356746673584,8.435001373291016,-0.4785816073417663,0,7.5711e-05,-0.0001002287819256,-4.839708851260088e-09,0.0008028639868421559,2.9182560342002376e-08,-9.326884445766731e-05,5.033404766062176e-10,13.418863478122825,93.24734258138103,-13.37714590874888,8.684940176361666,3161.962584213062,76.58113652187717,-3.2473425813810355,103.37714590874889,8.684940176361666,0.0008144540916717402,2.9585434955649464e-08,0
2024-02-06 10:31:00.519186,1.4070299863815308,11.239489555358888,1.2227760553359983,0,7.4453e-05,-0.00010237962582639974,-4.71226816278408e-09,0.0007904887320480351,2.8180341481820452e-08,-9.373694276545568e-05,6.209671167695615e-10,7.135525465913673,83.79104839033458,40.992195358855646,11.393025942615132,36373.09129589763,82.86447453408633,6.208951609665428,49.00780464114436,11.393025942615132,0.0008025837262979347,2.8578360999716342e-08,0
2024-02-06 10:31:00.594735,1.359171748161316,9.51180934906006,1.4788172245025637,0,7.5549e-05,-0.00010086374727587025,-4.823645531244125e-09,0.0008018604438476568,2.9052948830211295e-08,-9.225646964810414e-05,5.190427267669303e-10,8.132120291745247,81.1628762338996,47.414076970933344,9.721561876434862,-22124.23812598804,81.86787970825475,8.837123766100412,42.585923029066656,9.721561876434862,0.0008134278843966584,2.945523378440879e-08,0
2024-02-06 10:31:00.669168,1.0528795719146729,8.865724563598633,1.0672370195388794,0,7.4433e-05,-0.00010220967191247267,-4.710330563337028e-09,0.0007916057799243932,2.8163794677346487e-08,-9.367716791627927e-05,6.22793696527857e-10,6.772636519877591,83.13588464939752,45.38800157592586,8.991586194127576,-9807.151160201602,83.2273634801224,6.864115350602479,44.61199842407414,8.991586194127576,0.0008036553612282922,2.8561764942525386e-08,0
2024-02-06 10:31:00.744016,0.7705163955688477,9.507023811340332,1.100737690925598,0,7.4848e-05,-0.00010183131724921984,-4.75266906858808e-09,0.000795418125212193,2.849310213766233e-08,-9.322731316385789e-05,5.840110167037283e-10,4.633527285299928,83.39561404819858,55.00797938499157,9.60150096232129,8148.711631489348,85.36647271470008,6.604385951801416,34.992020615008435,9.60150096232129,0.0008073109332893635,2.8892659994718432e-08,0
2024-02-06 10:31:00.819018,0.4020085632801056,9.935354232788086,1.5266753435134888,0,7.5002e-05,-0.00010174103282738847,-4.7683441395439786e-09,0.0007969151883215909,2.861571180280443e-08,-9.302500236020608e-05,5.696695884083755e-10,2.3170624463723426,81.26420760384644,75.2475962751135,10.060000607376855,6113.165582991977,87.68293755362765,8.735792396153546,14.752403724886515,10.060000607376855,0.0008087513253173294,2.9015867921781034e-08,0
2024-02-06 10:31:00.894010,-0.6628355383872986,13.086813926696776,1.05048668384552,0,7.4992e-05,-0.00010173972869251294,-4.767326735736379e-09,0.0007968000774807936,2.8607743226475422e-08,-9.303788817034287e-05,5.705999028610277e-10,-2.89950280023598,85.41067222129081,122.2510845784704,13.14562938682932,41146.105977337116,92.89950280023598,4.589327778709198,-32.25108457847039,13.14562938682932,0.0008086392177621748,2.900786033071661e-08,0
2024-02-06 10:31:00.969730,-0.1986113786697387,7.602269172668457,1.2108114957809448,0,7.572e-05,-0.0001020532953703217,-4.84150739649525e-09,0.0008043309037289625,2.9190554903635772e-08,-9.221477563295883e-05,5.031679332366262e-10,-1.4965276275877875,80.9505236978264,99.31536348760599,7.700649812305292,-71909.39744484982,91.4965276275878,9.049476302173597,-9.315363487605993,7.700649812305292,0.0008160065211960187,2.9593611936050156e-08,0
2024-02-06 10:31:01.059738,0.5862624645233154,9.152873039245604,0.7130866050720215,0,9.000800000000001e-05,-9.928391601298374e-05,-6.2798604346175856e-09,0.0009240296396908766,4.153796262582711e-08,-7.847044760046524e-05,-7.162073015429559e-10,3.6649192548096403,85.54517045553062,50.57474772933848,9.19930872708331,16650.285694360697,86.33508074519035,4.454829544469383,39.425252270661524,9.19930872708331,0.0009326551785910705,4.201609143032784e-08,0
2024-02-06 10:31:01.134676,-0.0406794361770153,10.557510375976562,1.0145930051803589,0,7.4938e-05,-0.00010339488413157312,-4.752675675528349e-09,0.0007755119006571775,2.8731917119304517e-08,-9.148851346371693e-05,5.64433470075657e-10,-0.22076686533083553,84.51064492790987,92.29600663008988,10.606228317434118,18774.448081758364,90.22076686533084,5.489355072090135,-2.296006630089882,10.606228317434118,0.0007877051213628677,2.912781441456747e-08,0
2024-02-06 10:31:01.209770,0.3421858549118042,9.456772804260254,1.4572809934616089,0,7.5094e-05,-0.00010337136663091181,-4.768803443087822e-09,0.0007770730147452359,2.8853018742705897e-08,-9.129570729182286e-05,5.501763008567258e-10,2.072298426637275,81.23967579547863,76.78570218888301,9.574513612951966,-13738.97654249543,87.92770157336274,8.760324204521378,13.214297811116987,9.574513612951966,0.0007892167103237907,2.924963026788148e-08,0
2024-02-06 10:31:01.284049,-0.102895051240921,9.655384063720703,1.7228938341140747,0,7.4279e-05,-0.0001034688776334077,-4.684516043550112e-09,0.0007692848108215337,2.822287792878744e-08,-9.259162853405994e-05,6.251103902057729e-10,-0.6105639061159512,79.88270028610961,93.41777178870841,9.808434736141638,3149.22283807903,90.61056390611596,10.11729971389039,-3.417771788708408,9.808434736141638,0.0007817148703165556,2.8615839881881135e-08,0
2024-02-06 10:31:01.359745,-0.0311078056693077,9.39934253692627,1.8329676389694207,0,7.5696e-05,-0.00010356381865752859,-4.831198708872241e-09,0.0007827850846180921,2.9322519449706417e-08,-9.007230068038028e-05,4.956929963573416e-10,-0.18962384446565808,78.96522815972457,90.97228933385324,9.576449142952427,-3064.7008189232115,90.18962384446566,11.034771840275427,-0.9722893338532432,9.576449142952427,0.0007947269799027461,2.972198410923567e-08,0
2024-02-06 10:31:01.434786,-0.4546525478363037,8.753257751464844,1.5123178958892822,0,7.5041e-05,-0.00010340473214175551,-4.763416508485475e-09,0.000776840108023644,2.8811742199116248e-08,-9.116788169304651e-05,5.550491560846388e-10,-2.9733254266055402,80.1976626049125,106.73250793288975,8.894567759090961,-9086.784342712195,92.97332542660554,9.802337395087502,-16.73250793288974,8.894567759090961,0.0007889769798390142,2.9208127378305478e-08,0
2024-02-06 10:31:01.524707,-0.5503688454627991,9.475915908813477,1.619998812675476,0,8.9921e-05,-0.00011088209130790083,-6.357710474950917e-09,0.0009124651600561146,4.138017339362965e-08,-6.786344538132471e-05,-6.281439173486826e-10,-3.324050720594687,80.29852634809028,108.76437605112076,9.629137257824834,8169.053933273345,93.3240507205947,9.70147365190972,-18.764376051120763,9.629137257824834,0.0009216794202476633,4.1870440615678476e-08,0
2024-02-06 10:31:01.584418,-0.461831271648407,9.538131713867188,1.8042527437210083,0,5.9711e-05,-9.559280853893606e-05,-3.2389071127644464e-09,0.0006252579707155232,1.815286550332406e-08,-0.0001195867651406936,2.2032915125864036e-09,-2.772066246592443,79.28837707873825,104.35762493392744,9.71825975562375,1492.5641472913944,92.77206624659244,10.711622921261746,-14.357624933927445,9.71825975562375,0.0006437285991661946,1.857071723860778e-08,0
2024-02-06 10:31:01.659739,-0.0526439771056175,9.590775489807127,1.983720779418945,0,7.532099999999999e-05,-9.960828785546121e-05,-4.762451670122717e-09,0.0007745590914402012,2.9078437673449487e-08,-9.002163179258628e-05,5.672979745221546e-10,-0.31449463245673853,78.31393981883893,91.52015845611619,9.793921278778441,1004.5209590245925,90.31449463245673,11.686060181161066,-1.5201584561161832,9.793921278778441,0.0007861090836091175,2.947131334757306e-08,0
2024-02-06 10:31:01.734766,1.021771788597107,10.457008361816406,1.5003533363342283,0,7.5027e-05,-9.975074964375046e-05,-4.733145891610333e-09,0.0007716120672140125,2.885115051312732e-08,-9.053379068760198e-05,5.938396216267417e-10,5.580750633826672,81.83502519102365,55.744323703702506,10.61339255850458,10922.351683075949,84.41924936617333,8.164974808976352,34.2556762962975,10.61339255850458,0.0007832826830595954,2.9242848723382072e-08,0
2024-02-06 10:31:01.824766,1.3687434196472168,8.22921085357666,0.0143574485555291,0,8.999999999999999e-05,-8.185415753722935e-05,-6.092731029220738e-09,0.0009115064473700526,4.145181727256092e-08,-7.919390839652482e-05,-6.76826797566573e-10,9.44340916718807,89.90003654217,0.6009826429368519,8.342276425399753,-25234.623701164754,80.55659083281193,0.09996345783000127,89.39901735706316,8.342276425399753,0.0009185944599388901,4.190265649223344e-08,0
2024-02-06 10:31:01.898999,0.9930568337440492,9.901853561401367,0.9906639456748962,0,7.423299999999999e-05,-0.00010047340983483939,-4.655351651843034e-09,0.0007685702010545734,2.820693301470538e-08,-8.711699455794038e-05,6.342852058749533e-10,5.727043584805104,84.28666499869576,44.930886280904886,10.000714018496021,22340.974945055008,84.2729564151949,5.713335001304237,45.06911371909512,10.000714018496021,0.0007799900196628897,2.8595553619763787e-08,0
2024-02-06 10:31:01.974803,1.739644169807434,9.394556999206545,0.8638398051261902,0,7.5804e-05,-9.83268731965497e-05,-4.811509274164191e-09,0.0007837275315499309,2.9426262883666218e-08,-8.566028186168612e-05,4.985686552473365e-10,10.490954525545982,84.74636359139501,26.407211709935595,9.593241488558814,-5375.343384744965,79.50904547445403,5.253636408604986,63.592788290064405,9.593241488558814,0.0007945028014995176,2.9821202851293494e-08,0
2024-02-06 10:31:02.049722,1.3160994052886963,8.77479362487793,0.2775773406028747,0,7.4919e-05,-9.967903972852972e-05,-4.723891657694844e-09,0.0007756875938987736,2.8736221690655175e-08,-8.616535894867123e-05,5.746015013059187e-10,8.53000160877458,88.18813877130593,11.909657520426599,8.877283930562083,-9556.42170873518,81.46999839122543,1.8118612286940796,78.09034247957341,8.877283930562083,0.0007867983371693308,2.9127577247917873e-08,0
2024-02-06 10:31:02.124551,0.600619912147522,8.590539932250977,0.2536482512950897,0,7.482900000000001e-05,-9.976529209781434e-05,-4.714916662762659e-09,0.0007749061538887029,2.8666444972004743e-08,-8.618926410030663e-05,5.823574593431221e-10,3.99940824041739,88.30874971047295,22.894856821361618,8.615245675072288,-3501.827573397948,86.00059175958262,1.6912502895270516,67.10514317863839,8.615245675072288,0.0007860415065937019,2.905743702875781e-08,0
2024-02-06 10:31:02.199572,0.2321120798587799,9.25576877593994,1.6415349245071411,0,7.5021e-05,-9.968534982658174e-05,-4.7340639243874e-09,0.0007766193995246891,2.881539142513242e-08,-8.600732651542963e-05,5.658265866440126e-10,1.4365371555726805,79.94301669418066,81.95176545603641,9.403072293652633,10501.414518339467,88.56346284442732,10.05698330581934,8.04823454396359,9.403072293652633,0.0007877005274229975,2.9207161860576842e-08,0
2024-02-06 10:31:02.274745,0.1387886703014373,9.473523139953612,0.4067943692207336,0,7.517300000000001e-05,-9.965716136956956e-05,-4.749213955238308e-09,0.0007780428257102972,2.8933545754250285e-08,-8.585165348910631e-05,5.527653041636672e-10,0.8393325379017875,87.54122192042146,71.16156604391114,9.483268668400694,1066.8241888452098,89.16066746209822,2.458778079578536,18.838433956088863,9.483268668400694,0.0007890834524043182,2.932593822177582e-08,0
2024-02-06 10:31:02.349575,-1.97893500328064,9.373021125793455,-0.2488624453544616,0,7.483e-05,-9.934157627346362e-05,-4.7150856717325265e-09,0.0007748106433687215,2.8667231384303228e-08,-8.587873881404937e-05,5.822170664436589e-10,-11.921827591709704,91.520899018691,-172.832352802847,9.582882723298223,1331.20479617171,101.9218275917097,-1.5208990186909976,-97.16764719715303,9.582882723298223,0.0007858596818989,2.9058237469698944e-08,0
2024-02-06 10:31:02.424712,-2.979170560836792,6.149773597717285,-0.6341206431388855,0,7.5137e-05,-0.00010010264547755564,-4.745700359771308e-09,0.0007771933923587804,2.8905464003787394e-08,-8.60142767181331e-05,5.558314885594693e-10,-25.847209587384874,95.88712510224427,-167.98383787648754,6.862745917181553,-36202.36110194271,115.84720958738487,-5.887125102244269,-102.01616212351247,6.862745917181553,0.000788320090164584,2.9297721239418206e-08,0
2024-02-06 10:31:02.499709,-1.3639576435089111,7.6692705154418945,-0.1387886703014373,0,7.4997e-05,-9.979862650325145e-05,-4.731707270732652e-09,0.0007762260592708592,2.8796724642173322e-08,-8.596017306619227e-05,5.678697000443717e-10,-10.084449019760191,91.0367527310329,-174.18990066358114,7.790850594595997,12375.224041154232,100.0844490197602,-1.0367527310328966,-95.81009933641886,7.790850594595997,0.0007873219241813814,2.9188403173337265e-08,0
2024-02-06 10:31:02.589730,-2.438373327255249,8.676684379577637,1.1342384815216064,0,9.0021e-05,-0.00012836173675563183,-6.445647919533383e-09,0.0008990168724422459,4.138114954520216e-08,-7.848235408430636e-05,-6.67422563910174e-10,-15.696740139175924,82.55237946084269,155.0539436270019,9.08388756198803,14363.7258794285,105.69674013917593,7.447620539157312,-65.0539436270019,9.08388756198803,0.0009115193647429406,4.1885455323582035e-08,0
2024-02-06 10:31:02.664548,-2.706378936767578,8.726935386657715,1.749215841293335,0,7.4818e-05,-8.925390242066232e-05,-4.791442638334783e-09,0.0007667232567892079,2.871902595284927e-08,-0.00010040093211918414,6.923587361656586e-10,-17.229599268455445,78.66589903917314,147.1241725053217,9.302883652486974,2927.050850048706,107.22959926845544,11.334100960826865,-57.124172505321674,9.302883652486974,0.000778402953982812,2.9124212175721208e-08,0
2024-02-06 10:31:02.739541,-3.139495372772217,8.908797264099121,2.3163349628448486,0,7.4993e-05,-8.976541642274707e-05,-4.807106828733582e-09,0.0007682663833961492,2.8853337546365492e-08,-0.00010004519642382204,6.748196999181452e-10,-19.41265912703403,75.42549660644927,143.57991322204822,9.725662319275514,5637.575064186524,109.41265912703403,14.57450339355072,-53.579913222048226,9.725662319275514,0.0007799359635057415,2.9258823374407238e-08,0
2024-02-06 10:31:02.814351,-3.2830698490142822,9.530953407287598,3.161031484603882,1,7.481e-05,-8.917775170495358e-05,-4.790733528849897e-09,0.0007665791462097173,2.8712899180406548e-08,-0.00010054637545376362,6.931738287449451e-10,-19.0069831980987,71.65140638654657,136.08493754446224,10.564551127807123,11213.591879850403,109.00698319809871,18.348593613453428,-46.08493754446225,10.564551127807123,0.0007782710533096157,2.9118073374546855e-08,0
2024-02-06 10:31:02.889729,-2.749451398849488,8.33210563659668,2.0674726963043213,1,7.5378e-05,-9.089098773934689e-05,-4.841873050852078e-09,0.0007716522549781804,2.9149756898343908e-08,-9.90614802663857e-05,6.364851977204229e-10,-18.26200030639845,76.06446438849854,143.05836171789315,9.01431698377672,-20566.135265334757,108.26200030639846,13.93553561150147,-53.05836171789314,9.01431698377672,0.0007832761653067917,2.955600066450184e-08,0
2024-02-06 10:31:02.964721,-3.598933696746826,9.294054985046388,1.8999689817428589,1,7.4992e-05,-8.966574941589683e-05,-4.807025600581116e-09,0.0007682504059782034,2.8852555684779333e-08,-9.982719651024878e-05,6.748707123383125e-10,-21.16788081581262,78.446305617824,152.1692827518401,10.14601714714845,15090.945212445737,111.16788081581262,11.553694382176014,-62.16928275184007,10.14601714714845,0.0007798808255541897,2.9258040179518286e-08,0
2024-02-06 10:31:03.039686,-2.713557720184326,9.727170944213867,2.9121692180633545,1,7.4965e-05,-8.958053078176825e-05,-4.804605775798447e-09,0.0007679936194281583,2.8831816390436344e-08,-9.989216037594618e-05,6.775669236562767e-10,-15.587337286253565,73.3330878872122,132.97806106326752,10.510089420807331,4856.563378361644,105.58733728625357,16.6669121127878,-42.97806106326751,10.510089420807331,0.0007796263942954215,2.9237253119414325e-08,0
2024-02-06 10:31:03.114724,-8.095208168029785,9.428057670593262,4.508238792419434,1,7.5038e-05,-8.997505073668805e-05,-4.81115955452387e-09,0.0007686927852725988,2.888790544420792e-08,-9.962131548356356e-05,6.702846817874048e-10,-40.650360445544244,64.44415125631342,150.88647239007489,13.219110550004642,36101.990047673324,130.65036044554424,25.555848743686578,-60.88647239007488,13.219110550004642,0.0007803259026739346,2.929347399622009e-08,0
2024-02-06 10:31:03.189717,-8.578575134277344,11.402207374572754,-5.333792209625244,1,7.4993e-05,-8.959989061238622e-05,-4.807119118343517e-09,0.0007682241043090826,2.885332481419234e-08,-9.960274053167644e-05,6.747672230477467e-10,-36.956372555611225,115.06953173367775,-148.12841312834985,15.233240747873113,26857.57601200741,126.95637255561122,-25.06953173367775,-121.87158687165015,15.233240747873113,0.000779818646071421,2.9258811627551292e-08,0
2024-02-06 10:31:03.264710,-11.629533767700195,11.217952728271484,0.806410014629364,1,7.4993e-05,-8.959989061238622e-05,-4.807119118343517e-09,0.0007682241043090826,2.885332481419234e-08,-9.960274053167644e-05,6.747672230477467e-10,-46.03203063953011,85.88832736156584,176.0333706483404,16.178344049361396,12602.553591512311,136.03203063953012,4.111672638434167,-86.03337064834041,16.178344049361396,0.000779818646071421,2.9258811627551292e-08,0
2024-02-06 10:31:03.399732,-8.353642463684082,10.619726181030272,0.0382865294814109,1,0.000135022,-0.0006893849336092696,-2.8187959124944405e-08,0.0014236711179323202,9.464196396215692e-08,-7.424959610846359e-05,-4.543323735037735e-09,-38.18914297888059,89.7934365717129,179.7374030309119,13.511602141473283,-19750.425174327986,128.1891429788806,0.2065634282871071,-89.73740303091192,13.511602141473283,0.0015835416133605045,9.885496534218756e-08,0
2024-02-06 10:31:03.429160,-8.540288925170898,1.4979604482650757,-0.4570454359054565,1,2.9428e-05,0.00020256396192810673,-2.485272283094054e-09,0.0007838936169654138,-2.1910831346238745e-08,-5.2140382125993255e-05,2.129687945806882e-09,-80.05155925375952,106.96756715124128,-176.93665894114847,8.682701823766909,-164092.0320003525,170.05155925375954,-16.967567151241294,-93.06334105885153,8.682701823766909,0.0008113199004334696,2.2153931464887874e-08,0
2024-02-06 10:31:03.504712,-5.142359256744385,8.856152534484863,-0.2919347882270813,1,7.5552e-05,-0.0001129852704432235,-4.194085000696774e-10,0.0010226801705735928,1.975237334198582e-08,-6.941336405493784e-05,-6.735845486177505e-10,-30.141758781174254,91.8880181421373,-176.7507722290631,10.245024273278444,20678.77024448771,120.14175878117426,-1.8880181421372957,-93.24922777093688,10.245024273278444,0.0010312412994692292,1.9768304739538477e-08,0
2024-02-06 10:31:03.579716,-5.290719985961914,7.195474624633789,1.1509888172149658,1,7.5004e-05,-0.000110126606730722,-3.5827584572401685e-10,0.0010182820247319944,1.9193149700472093e-08,-6.964874485888052e-05,-6.354815307753645e-10,-36.32646323538174,80.91195231209292,167.72661992804652,9.00507347560027,-16531.795606609972,126.32646323538175,9.088047687907084,-77.72661992804649,9.00507347560027,0.0010265851640573862,1.9207008975431803e-08,0
2024-02-06 10:31:03.654700,-17.341405868530273,10.777658462524414,4.067943572998047,1,7.4984e-05,-0.00010990028547217704,-3.560755768019875e-10,0.0010181022934011227,1.9172785857290758e-08,-6.970093418278266e-05,-6.340880339849477e-10,-58.13910905405464,69.32137489765199,166.7982664670704,20.8189923950468,157552.53013238197,148.13910905405464,20.67862510234801,-76.79826646707042,20.8189923950468,0.0010263861713806575,1.918657277839808e-08,1
2024-02-06 10:31:03.729681,-5.857839107513428,5.357721328735352,4.180410385131836,1,7.4981e-05,-0.00010986548660471306,-3.5574592814387293e-10,0.0010180780903314359,1.9169731586715164e-08,-6.971330671371983e-05,-6.338789126236035e-10,-47.55320886796184,52.036543310136636,144.4866843875975,8.971916619876575,-158001.03726504344,137.55320886796184,37.963456689863364,-54.48668438759752,8.971916619876575,0.0010263592783683279,1.9183507675812705e-08,0
2024-02-06 10:31:03.804675,-10.741764068603516,6.642713069915772,4.534560680389404,1,7.499400000000001e-05,-0.00010997338402535783,-3.5717488080296856e-10,0.0010181560931550272,1.9182967108907827e-08,-6.965665940179394e-05,-6.347848174033544e-10,-58.267329580732074,55.6811148730601,157.11330001489114,13.41914202916509,59301.08287714371,148.26732958073208,34.318885126939904,-67.11330001489115,13.41914202916509,0.0010264443606069033,1.919679016818494e-08,0
2024-02-06 10:31:03.879709,-8.896832466125488,3.426644325256348,4.46995210647583,1,7.5034e-05,-0.00011036615595605235,-3.6158167160259595e-10,0.0010183574803029306,1.922369738037698e-08,-6.947656914605667e-05,-6.37567481974311e-10,-68.93564554777481,37.47360456693393,153.3241031222316,10.529766906076496,-38507.54488749893,158.9356455477748,52.52639543306608,-63.3241031222316,10.529766906076496,0.001026674066941284,1.923766551771869e-08,0
2024-02-06 10:31:03.954716,-7.420407772064209,1.366350531578064,4.848031997680664,1,7.500700000000001e-05,-0.00011014587321283686,-3.586047592088169e-10,0.0010182927748723634,1.9196202601932122e-08,-6.960236193146275e-05,-6.356899164047651e-10,-79.56675672422445,15.739753633810167,146.8419015769007,8.968432389742933,-20815.85073837859,169.56675672422443,74.26024636618983,-56.841901576900696,8.968432389742933,0.0010265947484423999,1.9210072706202114e-08,0
2024-02-06 10:31:04.044625,-7.071043491363525,2.8427748680114746,5.742979526519775,1,8.990900000000001e-05,-0.0002181216765766369,-2.804526272690186e-09,0.001049654968224705,3.4604481235748375e-08,9.311264935354735e-06,-1.084918880122766e-09,-68.09837044750576,26.335410022986363,140.91709194093252,9.542685096395953,6387.043640269829,158.09837044750574,63.66458997701364,-50.917091940932536,9.542685096395953,0.0010721190781653432,3.473488935041995e-08,0
2024-02-06 10:31:04.104399,-7.56158971786499,2.8212387561798096,6.403421878814697,1,5.9774e-05,2.355524303413809e-06,4.465302266866041e-10,0.0009643124429422028,4.259027267990978e-09,-0.0001737046382395225,1.3920782721377825e-09,-69.53939091940701,23.77747344235164,139.74089240834257,10.302467614060978,12710.919758842056,159.53939091940703,66.22252655764837,-49.740892408342596,10.302467614060978,0.0009798353624225994,4.502952856581289e-09,0
2024-02-06 10:31:04.194719,-6.116272926330566,3.5391111373901367,6.130630493164063,1,9.032e-05,-0.00020654647186138495,-2.6720781153662893e-09,0.0010614540668666965,3.5198559172302295e-08,1.772794363770911e-05,-9.901537845157132e-10,-59.944672215668895,29.997125879346914,134.9328297465417,9.355144702027662,-10488.51762658676,149.9446722156689,60.0028741206531,-44.93282974654169,9.355144702027662,0.0010815084193347073,3.531372217393228e-08,0
2024-02-06 10:31:04.269757,-6.657070159912109,4.295269966125488,6.33642053604126,1,7.5038e-05,-0.00010894535733940462,-2.614050484430553e-10,0.0010015915608547336,1.9434827530882842e-08,-7.75327932764488e-05,-5.33184928426103e-10,-57.1691125133814,34.13217116667777,136.41364183936196,10.144759849570482,10522.870379578617,147.1691125133814,55.86782883332223,-46.41364183936195,10.144759849570482,0.0010104781440953984,1.9443897241098914e-08,0
2024-02-06 10:31:04.344439,-5.869803428649902,4.328770637512207,6.781501770019531,1,7.4682e-05,-0.00010671557384064061,-2.2301740269300784e-10,0.001000056481627286,1.907853417932105e-08,-7.986778344692758e-05,-5.051676257693425e-10,-53.59254929754248,32.55091886610691,130.87818624723363,9.95899662516039,-2487.3895237151114,143.5925492975425,57.44908113389309,-40.878186247233614,9.95899662516039,0.0010089004128146686,1.9086523976972626e-08,0
2024-02-06 10:31:04.419357,-5.40797233581543,3.6204700469970703,6.7838945388793945,1,7.4918e-05,-0.00010804635138084753,-2.483593098691437e-10,0.0010009944920280581,1.931465819421238e-08,-7.82670666824775e-05,-5.238275380846125e-10,-56.198916402764034,28.088219516600933,128.56108619757165,9.400808117432545,-7450.6594907478175,146.19891640276404,61.91178048339906,-38.561086197571676,9.400808117432545,0.0010098463847755773,1.9323356302560637e-08,0
2024-02-06 10:31:04.494594,-5.644870281219482,4.20194673538208,6.338813304901123,1,7.5237e-05,-0.00010980927977826457,-2.831072830390215e-10,0.0010022421675048476,1.9634174441407876e-08,-7.617399478139454e-05,-5.484608873880997e-10,-53.3366215101532,33.54006757881374,131.68585593544344,9.47108605035212,934.0873894436952,143.3366215101532,56.45993242118627,-41.68585593544344,9.47108605035212,0.0010111132071786977,1.9643873474300797e-08,0
2024-02-06 10:31:04.569564,-6.243097305297852,4.52259635925293,6.063629150390625,1,7.497e-05,-0.00010822223610546449,-2.5400007566854337e-10,0.0010010774410017138,1.9366731273672247e-08,-7.782972084917601e-05,-5.279013913514183e-10,-54.07984606340643,36.717650774910226,135.8354812342285,9.808044670861369,4494.579438565406,144.07984606340645,53.282349225089774,-45.8354812342285,9.808044670861369,0.0010099136402275531,1.9375589697969583e-08,0
2024-02-06 10:31:04.644707,-6.010984897613525,4.376628875732422,6.039700031280518,1,7.5143e-05,-0.00010928221421601633,-2.7281421062135145e-10,0.00100184722398454,1.9539984257193557e-08,-7.678278287496146e-05,-5.412753729235562e-10,-53.94144545998382,35.9287179555151,134.8634722538138,9.57939435575562,-3042.86913093368,143.9414454599838,54.07128204448491,-44.86347225381381,9.57939435575562,0.0010107106699226579,1.9549383401893332e-08,0
2024-02-06 10:31:04.718995,-5.795623302459717,4.481916904449463,6.470423698425293,1,7.4288e-05,-0.00010423488921048508,-1.8153564890652307e-10,0.0009980601956635124,1.8685023835294022e-08,-8.213086076941064e-05,-4.733397902655879e-10,-52.28422027398859,34.70947438295123,131.85112240556157,9.774620782390874,2627.9671903302687,142.2842202739886,55.29052561704877,-41.85112240556155,9.774620782390874,0.0010068438531308293,1.869189988937396e-08,0
2024-02-06 10:31:04.809439,-6.269419193267822,4.960498332977295,6.503924369812012,1,9.044399999999999e-05,-0.00020169630249097206,-2.6528478154708915e-09,0.0010743360259514456,3.5425840513499633e-08,2.267592292581022e-05,-9.536167781661916e-10,-51.64820256648435,37.33251653857137,133.948227801758,10.305978504762177,5874.991402097456,141.64820256648434,52.66748346142863,-43.94822780175801,10.305978504762177,0.0010933405199553396,3.5537827206788554e-08,0
2024-02-06 10:31:04.869682,-7.0160064697265625,4.709243297576904,5.812373638153076,1,6.0243e-05,-1.0797322669254216e-06,4.0917169739073844e-10,0.000928318092459262,5.184761998438753e-09,-0.00016330633514346653,1.169972761526527e-09,-56.12992629259577,39.01473744703908,140.36012933185927,10.255974187200103,-830.0436160562042,146.12992629259577,50.98526255296092,-50.360129331859284,10.255974187200103,0.0009425733953952665,5.330854970932359e-09,0
2024-02-06 10:31:04.959746,-6.312491416931152,4.984427452087402,5.2811479568481445,1,9.006400000000001e-05,-0.00019981430000593536,-2.5862587708137532e-09,0.0010728555701721317,3.502326189510416e-08,2.103618598799236e-06,-1.2336403435127353e-09,-51.70490766004056,43.34435968991106,140.0835193524542,9.621984652662531,-7039.322421140202,141.70490766004056,46.65564031008895,-50.08351935245419,9.621984652662531,0.0010913062146562901,3.514028282043001e-08,0
2024-02-06 10:31:05.034752,-6.396243095397949,5.45104455947876,4.754708290100098,1,7.5006e-05,-0.00010413023786260953,-2.9786034520147827e-10,0.00099428690139705,1.9459746226659788e-08,-7.34563430844741e-05,-6.964256808600891e-10,-49.56150150063266,48.903229014755084,143.37438071060993,9.655726976711568,449.861665053951,139.56150150063266,41.09677098524492,-53.37438071060993,9.655726976711568,0.0010024197639045304,1.9474482091193203e-08,0
2024-02-06 10:31:05.109701,-5.417543888092041,6.434529781341553,4.412522315979004,1,7.4949e-05,-0.00010379354493358004,-2.9193451739178653e-10,0.0009939481625283366,1.9403081527337912e-08,-7.371760915674737e-05,-6.92231223221214e-10,-40.095658150502416,55.55935531821842,140.8376112201198,9.498595079030768,-2096.517601046051,130.09565815050243,34.44064468178157,-50.837611220119804,9.498595079030768,0.0010020680294586404,1.941762041511186e-08,0
2024-02-06 10:31:05.184755,-5.508474349975586,6.345992088317871,4.209125518798828,1,7.505399999999999e-05,-0.00010436716089107852,-3.028629544475797e-10,0.0009946191399264938,1.9507481310716777e-08,-7.32649726454216e-05,-6.999478087658269e-10,-40.958769600400856,56.444755699766525,142.61589630559556,9.398491521639814,-1333.7537958130638,130.95876960040084,33.555244300233475,-52.61589630559555,9.398491521639814,0.0010027599383687588,1.952238407552052e-08,0
2024-02-06 10:31:05.259737,-5.360114097595215,6.688178062438965,3.725757837295532,1,7.4982e-05,-0.000103975891706966,-2.9536260455405057e-10,0.0009941499098010665,1.943588562492659e-08,-7.355062844624097e-05,-6.946624471265274e-10,-38.70977194001696,60.87929900119657,145.1972504382942,9.345791587463198,-702.8344692941729,128.70977194001696,29.120700998803432,-55.1972504382942,9.345791587463198,0.0010022747747791343,1.945053842465151e-08,0
2024-02-06 10:31:05.334746,-5.757337093353272,7.099758148193359,3.175389051437378,1,7.5009e-05,-0.00010412597729804384,-2.981719797856187e-10,0.00099433604693991,1.9462730185342598e-08,-7.345746296324306e-05,-6.966470563605558e-10,-39.039293218959905,65.90326985975453,151.12160364558025,9.676600218947142,4410.25252281651,129.0392932189599,24.096730140245484,-61.12160364558025,9.676600218947142,0.0010024681502458599,1.9477476477154606e-08,0
2024-02-06 10:31:05.409734,-6.750393867492676,6.886789321899414,3.2017109394073486,1,7.4988e-05,-0.00010399464612295492,-2.9598671323969764e-10,0.000994189188191474,1.9441850670373712e-08,-7.352442251314694e-05,-6.951037465630532e-10,-44.42696206371935,65.06599215913498,154.62502055889163,10.161035255820698,6460.167451773033,134.42696206371937,24.93400784086503,-64.62502055889162,10.161035255820698,0.0010023137577849326,1.945652422304691e-08,0
2024-02-06 10:31:05.484752,-6.898754119873047,7.233761310577393,2.696807384490967,1,7.5018e-05,-0.00010419938334276549,-2.9910962368168467e-10,0.0009944009964509613,1.947167952314336e-08,-7.343594473828843e-05,-6.973081520718256e-10,-43.64207442579541,69.55411947941204,158.64886354016667,10.353399498421604,2564.2411501360475,133.64207442579539,20.44588052058797,-68.64886354016667,10.353399498421604,0.0010025386233015077,1.9486457058119245e-08,0
2024-02-06 10:31:05.574708,-7.370156764984131,6.135416507720947,2.340264081954956,1,8.995599999999999e-05,-0.00021077387874176364,-2.65164491819103e-09,0.0010942553855758316,3.507185404050146e-08,-3.581405795540387e-05,-1.5132964221910125e-09,-50.22371614323733,69.12138610275603,162.38366668671625,9.871138862205543,-5361.072482280908,140.22371614323734,20.878613897243966,-72.38366668671624,9.871138862205543,0.0011149453455523246,3.5204491654784946e-08,0
2024-02-06 10:31:05.679731,-6.915504455566406,5.965519905090332,1.6846072673797607,1,0.000105023,-0.00031839490754678116,-6.6381379696957856e-09,0.0011854177900417454,5.224577190901649e-08,-5.4926896451907615e-06,-1.8244808052400923e-09,-49.21796744186259,74.23081445847352,166.30947087295814,9.287062574264075,-5561.413099430292,139.2179674418626,15.769185541526483,-76.30947087295814,9.287062574264075,0.0012274448353138798,5.269738407437681e-08,0
2024-02-06 10:31:05.768999,-7.425193786621094,6.221560955047607,2.294798851013184,1,8.9268e-05,-0.0002054260571439491,-2.511738320344558e-09,0.0010894140605660087,3.432578400585391e-08,-3.6840461342831185e-05,-1.4910014083319496e-09,-50.04039891821315,69.75369774380088,162.82593508130395,9.955271229497507,7485.422046348433,140.04039891821316,20.246302256199108,-72.82593508130397,9.955271229497507,0.0011092249906599566,3.4449838348039765e-08,0
2024-02-06 10:31:05.798883,-8.099993705749512,6.5374250411987305,1.426173210144043,1,2.9884e-05,0.0002555478098795189,-3.999953402569095e-09,0.0007105742483654625,-1.9119468862939337e-08,-0.00014732356378271158,3.977196825695666e-09,-51.093342758387976,77.6934404774088,170.0142303467051,10.506274041153052,18438.05419808409,141.093342758388,12.306559522591192,-80.01423034670509,10.506274041153052,0.0007693664133688183,1.993418700157984e-08,0
2024-02-06 10:31:05.874689,-7.207438945770264,7.224189758300781,0.8662327527999878,1,7.5806e-05,-9.592615123202666e-05,-3.348804983640263e-10,0.0010265546857767707,2.0766748593900482e-08,-9.468763046755369e-05,-1.579622205484675e-09,-44.93349673483894,83.16246519182192,173.1467250383501,10.241408741133581,-3493.988602742144,134.93349673483894,6.837534808178081,-83.14672503835011,10.241408741133581,0.0010353656826184623,2.0829431063341897e-08,0
2024-02-06 10:31:05.949746,-6.654677391052246,8.999727249145508,0.679585874080658,1,7.5057e-05,-9.073478866388661e-05,-2.6497597637300655e-10,0.001020478828857482,2.0000134542669952e-08,-9.52665395433205e-05,-1.5084843688156024e-09,-36.48036996902056,85.68168612238539,174.16908079366587,11.213458819572311,12950.825085451464,126.48036996902057,4.318313877614615,-84.16908079366587,11.213458819572311,0.001028924465437953,2.005869185874083e-08,0
2024-02-06 10:31:06.024669,-6.64031982421875,7.094972610473633,0.5910483002662659,1,7.4923e-05,-8.984402385046349e-05,-2.528771959345455e-10,0.0010194004839668876,1.9863462628710724e-08,-9.535167203300173e-05,-1.4957129486399892e-09,-43.10414098378977,85.2379576101774,174.91356367632545,9.735595606049545,-19725.0939434188,133.10414098378976,4.762042389822588,-84.91356367632544,9.735595606049545,0.001027784625635671,1.992130145605805e-08,0
2024-02-06 10:31:06.099666,-5.537189483642578,7.097365379333496,0.4594383537769317,0,7.4997e-05,-9.029459169485435e-05,-2.595423247097222e-10,0.0010199256004725103,1.9938917693834983e-08,-9.531280402680214e-05,-1.502767534254202e-09,-37.96047663243729,86.29620291541094,175.25685049536665,9.013553478315027,-9627.61347433255,127.96047663243729,3.703797084589058,-85.25685049536665,9.013553478315027,0.0010283413219354762,1.999715257935114e-08,0
2024-02-06 10:31:06.174696,-5.106465816497803,8.004277229309082,0.7298369407653809,0,7.503e-05,-9.04702120073067e-05,-2.625249439708083e-10,0.001020174777575553,1.997257935007278e-08,-9.529318098444219e-05,-1.5059125330068879e-09,-32.53653728745873,84.79012746100155,171.86613903885916,9.522452890868099,6782.612455725338,122.53653728745874,5.209872538998452,-81.86613903885917,9.522452890868099,0.0010286020738867435,2.0030991433232348e-08,0
2024-02-06 10:31:06.249721,-3.943512439727783,8.51396656036377,0.5336185097694397,0,7.5025e-05,-9.044758706166608e-05,-2.620726494731349e-10,0.0010201334819660787,1.9967478579423915e-08,-9.529633962306854e-05,-1.505436059205368e-09,-24.85270297934725,86.41364007601906,172.293797536058,9.398067124002084,-1657.9242501301492,114.85270297934727,3.5863599239809507,-82.29379753605801,9.398067124002084,0.001028559419469322,2.0025863792149156e-08,0
2024-02-06 10:31:06.339707,-2.507767677307129,9.490273475646973,0.7776951193809509,0,8.9986e-05,-0.00013870638797714577,-1.9762589597509676e-09,0.0011548141995554571,3.623717471104577e-08,-8.548705802020903e-05,-2.8577862652759066e-09,-14.801858155664025,85.315276473466,162.7705788123589,9.84677607466646,4986.4306743757425,104.80185815566404,4.684723526534005,-72.77057881235889,9.84677607466646,0.001166251831573922,3.640337035018668e-08,0
2024-02-06 10:31:06.399681,-2.060293912887573,8.729329109191895,0.6293348073959351,0,5.9974e-05,-7.015805575468406e-05,1.157960882888871e-09,0.000881410843167365,5.681581719947095e-09,-0.00010660094910142298,2.4686369591303713e-11,-13.279907187415473,85.87643562419525,163.01424966073068,8.991221274324563,-14265.42835798675,103.27990718741547,4.123564375804747,-73.01424966073067,8.991221274324563,0.0008906014763010484,5.798435449634786e-09,0
2024-02-06 10:31:06.489683,-0.765730619430542,9.21987533569336,1.0576653480529783,0,9.0002e-05,-0.00011258798808290823,-1.5857882192887393e-09,0.0011509001987028721,3.619469970258683e-08,-8.1272328767513e-05,-2.796043024332901e-09,-4.747642734460248,83.45587520549503,125.90385982049703,9.311879540443607,3562.790450423823,94.74764273446026,6.544124794504981,-35.90385982049703,9.311879540443607,0.001159246528508135,3.633715546697065e-08,0
2024-02-06 10:31:06.564668,-0.3804723918437958,9.47113037109375,0.3421858549118042,0,7.4985e-05,-0.00010398172277275487,4.0325454671006616e-11,0.0010105587823534613,1.996538494332536e-08,-9.178311152497407e-05,-1.4966562508967623e-09,-2.300437888007416,87.93084029913655,138.0327031935377,9.484943906345018,2307.986475980671,92.30043788800741,2.0691597008634504,-48.03270319353771,9.484943906345018,0.0010200320538216955,2.0021443554619277e-08,0
2024-02-06 10:31:06.639684,-0.7681235074996948,9.014084815979004,1.1079164743423462,0,7.5016e-05,-0.0001039995260091947,3.710174531488638e-11,0.001010845303188861,1.9996716706651268e-08,-9.176063493887063e-05,-1.499501178966952e-09,-4.870618904233298,82.99294909047796,124.73374488072513,9.114341320499031,-4940.31387765259,94.8706189042333,7.007050909522044,-34.73374488072512,9.114341320499031,0.0010203157072756952,2.0052894039796215e-08,0
2024-02-06 10:31:06.714689,-0.9475916028022766,9.064335823059082,0.5288326740264893,0,7.5005e-05,-0.00010399008957608804,3.8245688200605124e-11,0.0010107458718753462,1.998559795518842e-08,-9.176963705918666e-05,-1.498491762470963e-09,-5.96806016879609,86.66102705888385,150.8349528738802,9.129062260495957,196.26611555129995,95.9680601687961,3.338972941116162,-60.83495287388022,9.129062260495957,0.0010202170467743966,2.0041733106727342e-08,0
2024-02-06 10:31:06.789687,-0.2823631465435028,10.203360557556152,0.5647262930870056,0,7.499799999999999e-05,-0.00010398578473446532,3.897360376069366e-11,0.0010106784349380139,1.9978522970114557e-08,-9.177346451557157e-05,-1.49784936161545e-09,-1.5851726985389152,86.83207758571042,116.56505117707799,10.22287686515505,14584.583651018598,91.58517269853893,3.167922414289584,-26.56505117707799,10.22287686515505,0.0010201501414325179,2.0034631309791476e-08,0
2024-02-06 10:31:06.864476,-1.0313433408737185,10.681941986083984,-1.5506044626235962,0,7.478899999999999e-05,-0.00010384850240653022,6.069228676692743e-11,0.0010084959208222035,1.9767519249937616e-08,-9.1670440246855e-05,-1.4786794735677766e-09,-5.514823507289697,98.25943787887574,-123.62880895705968,10.843058972464211,8292.424117305516,95.5148235072897,-8.259437878875742,-146.37119104294035,10.843058972464211,0.0010179646375892218,1.9822840206082425e-08,0
2024-02-06 10:31:06.939664,-0.3374000489711761,8.805901527404785,-4.235447406768799,0,7.5188e-05,-0.00010412156671280429,1.9202257977619414e-11,0.0010123837456031447,2.017068474338948e-08,-9.28247575947988e-05,-1.5154862655371873e-09,-2.1942270329235427,115.68654398727203,-94.554621972332,9.777359318287338,-14173.799731032519,92.19422703292355,-25.686543987272035,-175.44537802766803,9.777359318287338,0.0010219484256256356,2.022754533711267e-08,0
2024-02-06 10:31:07.014513,-1.6032484769821167,10.28471851348877,-3.926762104034424,0,7.4849e-05,-0.00010379262678765521,5.444371377594708e-11,0.0010091478855062132,1.9828035131916447e-08,-9.144126308271766e-05,-1.4842531750323484e-09,-8.860325754757909,110.89713137988355,-112.20958731283604,11.124985447285987,18004.597643237026,98.86032575475791,-20.89713137988354,-157.79041268716395,11.124985447285987,0.0010185842472723134,1.988358490811142e-08,0
2024-02-06 10:31:07.104674,-3.232818841934204,9.877924919128418,-4.52259635925293,0,9.0161e-05,-0.00014081755818127857,-1.8182918623462105e-09,0.0011635130836263304,3.646192751159521e-08,-0.00015612955147764566,-3.3796553313064904e-09,-18.12208770261342,114.60061971031003,-125.55774605445191,11.334831105994956,2327.454871939859,108.12208770261343,-24.600619710310017,-144.4422539455481,11.334831105994956,0.001182357271431271,3.6663338818442684e-08,0
2024-02-06 10:31:07.164714,-2.8690967559814453,10.313433647155762,-4.199553489685059,0,6.004e-05,-4.8919658318869914e-05,1.0392454867542761e-09,0.0008594211279388075,5.995526818318442e-09,-2.476961367771507e-05,-6.552234544841796e-10,-15.546049045068994,112.15578771625393,-124.34053414134395,11.499342559563734,2740.0308722314817,105.546049045069,-22.155787716253915,-145.65946585865603,11.499342559563734,0.0008611685908574409,6.120105455482035e-09,0
2024-02-06 10:31:07.253846,-2.9528486728668213,9.116979598999023,-4.000942230224609,0,8.9132e-05,-0.0001336056765268968,-1.6157680339122465e-09,0.0011420559190173751,3.510901194334307e-08,-0.0001440540244195211,-3.110932094246577e-09,-17.946336813456387,113.69403495696535,-126.4287468961526,10.384901108003408,-12503.269886912964,107.9463368134564,-23.694034956965353,-143.57125310384743,10.384901108003408,0.001158832930544473,3.528358434842232e-08,0
2024-02-06 10:31:07.329756,-3.701828718185425,8.595325469970703,-5.453437328338623,0,7.591000000000001e-05,-8.961160429465044e-05,-1.4007859040099867e-10,0.0010249598702064162,2.0782870560784595e-08,-8.155112115785963e-05,-1.6194564768345142e-09,-23.300544011618634,122.39371693222432,-124.16891579593205,10.831580424279116,5884.327707491864,113.30054401161863,-32.393716932224315,-145.83108420406796,10.831580424279116,0.0010320966817696483,2.084634188624414e-08,0
2024-02-06 10:31:07.403871,-3.421858549118042,6.64031982421875,-5.300291538238525,0,7.4115e-05,-8.321809497224556e-05,1.5036064691040988e-11,0.0010112858785548812,1.8955340001271323e-08,-7.189964950010661e-05,-1.481734410168989e-09,-27.262744971795815,128.59680549806131,-122.8462131206498,9.159478898300256,-22560.905700315187,117.26274497179583,-38.596805498061315,-147.1537868793502,9.159478898300256,0.001017248219017151,1.9013171158681473e-08,0
2024-02-06 10:31:07.494182,-4.182803153991699,7.877453327178955,-6.190453052520752,0,9.0311e-05,-0.00014480064544402822,-1.8314596951999432e-09,0.0011288508055348997,3.628616686903036e-08,-0.00016495169919607518,-3.3997566319106684e-09,-27.967595352591392,128.16183780560192,-124.04634788429715,10.856879024028462,18795.05404356287,117.9675953525914,-38.16183780560192,-145.95365211570285,10.856879024028462,0.001149991491770905,3.649107419381456e-08,0
2024-02-06 10:31:07.554677,-2.9983139038085938,8.080850601196289,-4.663777828216553,0,6.0495e-05,-3.774455234634147e-05,8.899241134588874e-10,0.0008909444105706816,6.175059787328357e-09,-3.1368252260434697e-06,-8.938929098257243e-10,-20.35683776179179,119.99094071914132,-122.73671284467459,9.80004369049397,-17469.796405231704,110.3568377617918,-29.990940719141307,-147.26328715532543,9.80004369049397,0.0008917490867006614,6.302568749250739e-09,0
2024-02-06 10:31:07.628897,-3.910011768341065,7.975562572479248,-2.9911351203918457,0,7.421999999999999e-05,-8.515293727146846e-05,4.654009095666748e-11,0.0010011315459750299,1.9159431039123292e-08,-5.5668665335868556e-05,-1.2974455888068452e-09,-26.116358427924915,110.55792934740984,-142.58423214768416,9.372549262849407,-5759.827912214534,116.11635842792491,-20.557929347409825,-127.41576785231582,9.372549262849407,0.001006287431787056,1.9203367641611762e-08,0
2024-02-06 10:31:07.704427,-3.2352118492126465,8.461322784423828,-2.395301103591919,0,7.553e-05,-8.983305874096618e-05,-6.807573643147834e-11,0.0010118977058838016,2.0477965199090838e-08,-5.919678106257796e-05,-1.3726824561978284e-09,-20.924502904887895,105.80619465573848,-143.48432187272485,9.370061171004402,-32.94176942944351,110.92450290488789,-15.806194655738475,-126.5156781272752,9.370061171004402,0.0010176007097598887,2.0524033476064577e-08,0
2024-02-06 10:31:07.778992,-2.8858470916748047,8.006670951843262,-1.25866961479187,0,7.4565e-05,-8.687964780198799e-05,1.718814447549721e-11,0.0010039518989060528,1.9505317764779732e-08,-5.743374019095778e-05,-1.3164082296929973e-09,-19.820700880567035,98.93393145758311,-156.43545360059926,8.603437822569472,-10281.276046870917,109.82070088056705,-8.933931457583105,-113.56454639940075,8.603437822569472,0.0010093394488632599,1.9549696856077994e-08,0
2024-02-06 10:31:07.869176,-1.5338541269302368,7.26486873626709,0.1387886703014373,0,9.0184e-05,-0.00012139530446868407,-1.6093350952823162e-09,0.0011232149881003507,3.611742756885624e-08,-6.617945042695582e-05,-2.2817654418235937e-09,-11.921943666091652,88.90554968727808,174.829750024093,7.426324025579273,-13052.357369269477,101.92194366609165,1.0944503127219152,-84.82975002409299,7.426324025579273,0.0011316927361696412,3.622519823509576e-08,0
2024-02-06 10:31:07.929667,-1.6008554697036743,8.162209510803223,0.105287954211235,0,6.0491e-05,-7.485583844225871e-05,1.304307497944996e-09,0.0008941768709052212,6.166219334130017e-09,-6.98031340327832e-05,-2.629000016420784e-10,-11.096577168590386,89.26095736229888,176.23708713639604,8.318382528258047,14746.962402320572,101.09657716859039,0.7390426377011219,-86.23708713639603,8.318382528258047,0.0009000156390483139,6.308137231913854e-09,0
2024-02-06 10:31:08.019310,-1.8545037508010864,8.044957160949707,0.0550368875265121,0,8.9643e-05,-0.0001252211544403361,-1.6120147503117056e-09,0.0011304125323126919,3.567663447543432e-08,-6.74662391396138e-05,-2.2637383850029365e-09,-12.980924473424698,89.60803617511951,178.30010800414857,8.256121906939109,-694.5396887535875,102.98092447342471,0.3919638248804837,-88.30010800414856,8.256121906939109,0.001139326346642,3.578470833365429e-08,0
2024-02-06 10:31:08.094693,-3.582183361053467,12.37851333618164,1.246705174446106,0,7.5383e-05,-8.645757533281317e-05,-1.027454070291524e-10,0.0009847931876681454,2.059521769197096e-08,-7.674766004147856e-05,-1.235493283841749e-09,-16.139766809337036,84.2488341865269,160.81060018245947,12.946578846870153,62221.68048407524,106.13976680933703,5.751165813473091,-70.81060018245947,12.946578846870153,0.0009915557161006428,2.063249844426887e-08,0
2024-02-06 10:31:08.169647,-0.6054057478904724,13.589324951171877,-0.7322298884391785,0,7.4954e-05,-8.555933746894469e-05,-6.584777923317486e-11,0.000979223086355508,2.017393620119288e-08,-7.685801499032704e-05,-1.2025448665474261e-09,-2.550845876415772,93.0842702580025,-129.58385316326172,13.622497177744064,9017.775313844635,92.55084587641578,-3.0842702580024923,-140.41614683673828,13.622497177744064,0.0009859540595524646,2.0209852843004326e-08,0
2024-02-06 10:31:08.244523,1.5864980220794678,10.923624992370604,0.184253916144371,0,7.487599999999999e-05,-8.559760006763806e-05,-5.917265866924742e-11,0.0009782670813077098,2.0097594084654007e-08,-7.683664392740754e-05,-1.1965507748496339e-09,8.263601497714108,89.03365679995049,6.624582687062075,11.039769402194064,-34493.3994277205,81.7363985022859,0.9663432000495071,83.37541731293793,11.039769402194064,0.000985006244324203,2.0133269062719222e-08,0
2024-02-06 10:31:08.318945,-1.2108114957809448,11.165308952331545,-0.3924369215965271,0,7.4422e-05,-8.568288090910782e-05,-2.0291989487526733e-11,0.0009732528933022625,1.965459905041755e-08,-7.67893863851699e-05,-1.1616776659686793e-09,-6.189200983679914,92.01299643124679,-162.0419375113389,11.237624091273137,2658.551088106641,96.18920098367991,-2.0129964312467945,-107.95806248866111,11.237624091273137,0.0009800302853807737,1.968890983770108e-08,0
2024-02-06 10:31:08.394673,1.0863802433013916,11.663034439086914,0.7633376717567444,0,7.5728e-05,-8.576413451697697e-05,-1.3224689056076046e-10,0.0009881598015368588,2.0935401540147498e-08,-7.654718819531527e-05,-1.2618064491697364e-09,5.321592191944356,86.25537095275607,35.09353377606024,11.738367806534518,6612.398521833149,84.67840780805565,3.744629047243938,54.906466223939766,11.738367806534518,0.0009948239804927397,2.0973809439451852e-08,0
2024-02-06 10:31:08.469650,0.9595561623573304,11.06002140045166,0.4498667120933532,0,7.4977e-05,-8.653238363730184e-05,-6.754954799382817e-11,0.000979627294069112,2.019649748574745e-08,-7.700274644145099e-05,-1.20414844871363e-09,4.958507101724518,87.67077636661176,25.11849463919878,11.110679613138716,-8371.743246539627,85.04149289827548,2.329223633388246,64.88150536080123,11.110679613138716,0.000986451677307434,2.0232475061637335e-08,0
2024-02-06 10:31:08.544670,0.9739136099815368,9.94731903076172,-0.0119645409286022,0,7.502e-05,-8.649081403719654e-05,-7.126954674382984e-11,0.0009800789518883831,2.0238631170035533e-08,-7.699333154477094e-05,-1.2074593643903338e-09,5.591844206313533,90.0689147866194,-0.7038439638348906,9.994889032385561,-14873.241545629893,84.40815579368646,-0.06891478661940573,90.7038439638349,9.994889032385561,0.0009868958333835499,2.027474362604077e-08,0
2024-02-06 10:31:08.633894,1.552997350692749,9.38498592376709,0.2201475501060485,0,8.9224e-05,-6.854469239448776e-05,-1.1723317134216518e-09,0.0011173769816754467,3.5134763210205854e-08,-7.551481581359272e-05,-2.290572226929433e-09,9.395977124868661,88.65623530773698,8.068294842501613,9.51515772356837,-5376.707038657665,80.60402287513134,1.343764692263021,81.93170515749839,9.51515772356837,0.0011220214710249297,3.5228861301641716e-08,0
2024-02-06 10:31:08.709664,2.093794584274292,7.456301689147949,-0.8805902004241943,0,7.577e-05,-9.307666174101104e-05,-8.510486415215177e-11,0.0010040856399033673,2.086368415484518e-08,-7.107201810490255e-05,-1.3044825951597155e-09,15.685205376287032,96.73544014846199,-22.81023158790307,7.794603886138797,-22707.58660986634,74.31479462371297,-6.735440148461995,112.81023158790308,7.794603886138797,0.0010108919175552393,2.090459839824996e-08,0
2024-02-06 10:31:08.784701,2.122509479522705,6.470423698425293,-1.1677391529083252,0,7.503700000000001e-05,-9.462193718039263e-05,-1.6313327647457848e-11,0.0009989814950488217,2.0129560049885206e-08,-7.032130539690619e-05,-1.252661942096303e-09,18.161173429288713,100.23024232889641,-28.81823223844575,6.909055221739253,-11801.493455222679,71.83882657071129,-10.230242328896395,118.81823223844574,6.909055221739253,0.0010059137261408029,2.0168505543737492e-08,0
2024-02-06 10:31:08.859605,2.036364793777466,6.343599319458008,-1.081594467163086,0,7.4904e-05,-9.489850231956711e-05,-3.710218420709859e-12,0.0009981293625181324,1.9996752177856998e-08,-7.017172471117143e-05,-1.2433191555941153e-09,17.797198571980147,99.6759808777356,-27.974551629725962,6.749657805441861,-2128.0227530891852,72.20280142801985,-9.675980877735595,117.97455162972595,6.749657805441861,0.0010050830915960584,2.00353675771376e-08,0
2024-02-06 10:31:08.934706,1.3256710767745972,7.339049339294434,-0.9284483194351196,0,7.5101e-05,-9.456734178631773e-05,-2.2372604065139352e-11,0.0009994771034110195,2.0193516414751016e-08,-7.036971392565136e-05,-1.2571624872998421e-09,10.239073981234862,97.21007224068454,-35.00589952810883,7.515388565487261,10196.01283665198,79.76092601876515,-7.210072240684537,125.00589952810881,7.515388565487261,0.0010064041727921194,2.023262373607796e-08,0
2024-02-06 10:31:09.009513,1.2562767267227173,9.002120018005371,0.3062922358512878,0,7.4807e-05,-9.494688811343183e-05,5.4859877301232805e-12,0.0009970749515154965,1.9900023262676825e-08,-7.027825698136454e-05,-1.2364872355765113e-09,7.944514143183246,88.0512940248301,13.701936390169937,9.0945154332939,21109.346288537683,82.05548585681676,1.9487059751699063,76.29806360983007,9.0945154332939,0.001004048008765713,1.9938401556666567e-08,0
2024-02-06 10:31:09.084694,0.9021263718605042,9.985605239868164,0.6771929860115051,0,7.5181e-05,-9.454326673399678e-05,-2.994867122634524e-11,0.0010006256561387189,2.0273593276308155e-08,-7.00943452448762e-05,-1.2627369121928178e-09,5.162240508725488,86.12031718786761,36.89420560882133,10.049116097328755,12697.365877480412,84.83775949127451,3.879682812132394,53.10579439117868,10.049116097328755,0.0010075233745393132,2.031290195332734e-08,0
2024-02-06 10:31:09.159646,1.3256710767745972,9.758278846740724,1.2251689434051514,0,7.495200000000001e-05,-9.479834954186549e-05,-8.269056162760234e-12,0.0009983649814108023,2.004470884830875e-08,-7.031216568579439e-05,-1.246660366691257e-09,7.736323368389063,82.843859421775,42.74373493380279,9.923832364284912,-1671.5195464276082,82.26367663161093,7.156140578225014,47.256265066197216,9.923832364284912,0.0010053174443063642,2.0083440523491878e-08,0
2024-02-06 10:31:09.234713,2.2086541652679443,9.499845504760742,0.5049036145210266,0,7.506699999999999e-05,-9.459512584044807e-05,-1.9159180997241476e-11,0.0009994723235610134,2.015958449334461e-08,-7.021268651371365e-05,-1.2547405456927274e-09,13.08838996232141,86.95767125150729,12.876687272435294,9.766275927703186,-2098.8774905314826,76.9116100376786,3.042328748492707,77.12331272756471,9.766275927703186,0.0010063910694877486,2.0198603611525283e-08,0
2024-02-06 10:31:09.309656,-0.3517574965953827,10.947554588317873,0.4020085632801056,0,7.494299999999999e-05,-9.471025343390577e-05,-7.422247482231456e-12,0.0009982045847552426,2.0035728525029e-08,-7.026891506873732e-05,-1.2460306863946153e-09,-1.8403460139958567,87.89696876834553,131.1859254664204,10.960579167432773,15936.154673946694,91.84034601399586,2.103031231654476,-41.185925466420414,10.960579167432773,0.0010051468278599095,2.0074438101472614e-08,0
2024-02-06 10:31:09.399645,-0.3948298394680023,8.379963874816895,-1.275420069694519,0,8.9989e-05,-0.00010032682996311062,-1.4746862258779863e-09,0.0011436055061534054,3.614856583893476e-08,-7.683958983149296e-05,-2.352727968759048e-09,-2.6975493394070833,98.65393291779174,-107.20087632475455,8.485657399373963,-27502.492171918897,92.69754933940709,-8.653932917791732,-162.79912367524545,8.485657399373963,0.0011505665339650313,3.625505262127717e-08,0
2024-02-06 10:31:09.459673,-0.3326142132282257,9.136122703552246,-0.2345049977302551,0,6.0027999999999995e-05,-8.942935433169478e-05,1.367956292950346e-09,0.0008812057711661465,5.815880499049213e-09,-5.4220157358936136e-05,-3.8938742597282524e-10,-2.0850177003180246,91.4703389486745,-144.81478519183793,9.14518249479827,10986.957676822602,92.08501770031803,-1.4703389486745029,-125.18521480816209,9.14518249479827,0.0008873900191103879,5.987269241160707e-09,0
2024-02-06 10:31:09.564635,-1.0457007884979248,9.353878021240234,0.5742979645729065,0,0.000104962,-0.00012039595747547621,-3.346188987421365e-09,0.0012966206174500592,5.474510597208952e-08,-4.658602877288229e-05,-2.65420000979639e-09,-6.378798103481569,86.48663398301694,151.22444765245837,9.429652290907596,2710.2169938580214,96.37879810348157,3.513366016983056,-61.22444765245835,9.429652290907596,0.0013030312621920617,5.491145951736172e-08,0
2024-02-06 10:31:09.624666,-1.0576653480529783,9.509416580200195,1.404637098312378,0,6.0031e-05,-7.314278553479189e-05,1.0017556436758133e-09,0.0008728472725813992,6.006925088587789e-09,-9.104379442813164e-05,4.377227833259886e-10,-6.346521319587309,81.59759050004482,126.97906034482949,9.67060830879908,4013.859803959362,96.34652131958731,8.402409499955198,-36.97906034482949,9.67060830879908,0.0008806254600183031,6.105592897056306e-09,0
2024-02-06 10:31:09.714642,-1.0480937957763672,8.76761531829834,1.4812101125717163,0,8.9976e-05,-0.00010467126431577676,-1.6605652177118253e-09,0.0011465001326816686,3.6241604113889066e-08,-4.783544706316955e-05,-1.641646659902518e-09,-6.816874229400989,80.41093430022151,125.28295474517932,8.953410655833302,-7970.988407639571,96.816874229401,9.589065699778494,-35.28295474517931,8.953410655833302,0.001152261627326138,3.6316750258608e-08,0
2024-02-06 10:31:09.774684,-0.825553297996521,9.128944396972656,2.167974710464477,0,6.0042e-05,-7.662838826327795e-05,1.052946682438886e-09,0.0008786423234232076,5.931296973367386e-09,-0.00010245279630955225,6.077174786570086e-10,-5.167345133778166,76.64067025961054,110.84656856047435,9.419091166140442,7755.912699562632,95.16734513377817,13.359329740389457,-20.846568560474342,9.419091166140442,0.0008879081134160262,6.054609899589023e-09,0
2024-02-06 10:31:09.849676,-0.952377438545227,9.054763793945312,2.333085298538208,0,7.4992e-05,-8.991842051892752e-05,-1.919907132081002e-10,0.0010145655421503195,2.0083025768529504e-08,-6.880737274225717e-05,-6.724522850052671e-10,-6.004277154785181,75.55123109230047,112.20553569997034,9.39888595312487,-269.43157957611606,96.00427715478517,14.448768907699524,-22.205535699970333,9.39888595312487,0.0010208638578238934,2.00951978474706e-08,0
2024-02-06 10:31:09.924656,-0.8542681932449341,9.38259220123291,2.6656997203826904,0,7.498e-05,-8.990758064513678e-05,-1.909117572011159e-10,0.0010144549180143485,2.0070851645768516e-08,-6.88373654523707e-05,-6.716264165760994e-10,-5.202334216914102,74.13955689870795,107.76892836354584,9.791259651335723,5233.044788088206,95.20233421691411,15.860443101292052,-17.76892836354585,9.791259651335723,0.001020754983638769,2.0082993181518767e-08,0
2024-02-06 10:31:09.999742,-0.6604426503181458,9.717599868774414,3.268712520599365,0,7.5086e-05,-8.998786031984563e-05,-2.0044621557226015e-10,0.0010154672281940589,2.0178437519517564e-08,-6.852284160359864e-05,-6.789065075500659e-10,-3.888045966152721,71.40858643514515,101.42281458528359,10.273870412180933,6427.440013387451,93.88804596615272,18.591413564854854,-11.422814585283593,10.273870412180933,0.0010217469776625232,2.019085024114649e-08,0
2024-02-06 10:31:10.074664,0.0215361732989549,10.973876953125,2.8355960845947266,0,7.4922e-05,-8.993546998873005e-05,-1.856925024869563e-10,0.001013770527094663,2.0012040023583882e-08,-6.902339490922458e-05,-6.676277161560139e-10,0.11244250851831585,75.51194866752334,89.56485053750785,11.334330343873754,14154.186109458109,89.88755749148169,14.488051332476655,0.4351494624921474,11.334330343873754,0.0010200898486960252,2.00240344181282e-08,0
2024-02-06 10:31:10.164703,1.268241286277771,9.088264465332031,0.983485221862793,0,9.0039e-05,-8.018668706051937e-05,-1.4715608265437077e-09,0.0011654102230060706,3.6483377723220276e-08,-4.015686885436542e-05,-1.4928667398131089e-09,7.944160461568443,83.82377948001583,37.7925652417018,9.228880221005088,-23383.757292602826,82.05583953843156,6.176220519984171,52.207434758298206,9.228880221005088,0.0011688556227289098,3.654354925926358e-08,0
2024-02-06 10:31:10.224657,1.4740313291549685,7.303155422210693,0.1531461179256439,0,5.9954e-05,-0.00012143732287816634,1.561368342958971e-09,0.0009188422893477092,5.1310093061385464e-09,-5.725464578313298e-05,-2.7554030878539363e-11,11.410982821725746,88.79869181630391,5.931527148176066,7.4519998130523,-29637.39546907276,78.58901717827425,1.2013081836960893,84.06847285182394,7.4519998130523,0.0009285990903211716,5.363383897008722e-09,0
2024-02-06 10:31:10.314636,1.170132040977478,10.461793899536133,0.8566610813140869,0,8.9979e-05,-8.174182028405299e-05,-1.4888585437638466e-09,0.0011855385910404335,3.672302727296554e-08,-4.209491520454652e-05,-1.5190393152060777e-09,6.381901226520007,85.3187950623253,36.208094518445066,10.561827909880552,34561.709919295085,83.61809877348,4.681204937674718,53.79190548155494,10.561827909880552,0.0011890985904943142,3.678457437969687e-08,0
2024-02-06 10:31:10.389620,0.806410014629364,9.083478927612305,1.7037506103515625,0,7.4984e-05,-9.656094434596529e-05,-1.5203356595028432e-10,0.001038997908018888,2.0044564871268276e-08,-6.129160186280973e-05,-7.438989034935741e-10,5.073284878964578,79.37669897603035,64.67112343846955,9.276995886726729,-17134.749055182754,84.92671512103541,10.623301023969645,25.328876561530446,9.276995886726729,0.0010452738058994492,2.0058940167971903e-08,0
2024-02-06 10:31:10.464526,0.983485221862793,9.315590858459473,1.8281817436218264,0,7.4906e-05,-9.663075026018848e-05,-1.4449908986064483e-10,0.0010382803442972313,1.9963551019427953e-08,-6.142934722461469e-05,-7.391127864791648e-10,6.026626431062825,78.89682862638395,61.72160926143454,9.544093708233818,3565.773389409254,83.97337356893718,11.103171373616055,28.278390738565466,9.544093708233818,0.0010445751001963747,1.9977751049690515e-08,0
2024-02-06 10:31:10.539681,0.5862624645233154,9.451987266540527,1.897576093673706,0,7.5155e-05,-9.643531667323342e-05,-1.685358151938549e-10,0.0010406169077737937,2.0222373727310786e-08,-6.096549037387141e-05,-7.543509437601757e-10,3.5492418166676134,78.64823203612336,72.8312916318372,9.658393344414753,1520.8520548324734,86.45075818333238,11.351767963876634,17.1687083681628,9.658393344414753,0.0010468524776983076,2.023714033242801e-08,0
2024-02-06 10:31:10.614000,0.2273262739181518,9.049978256225586,1.8640754222869875,0,7.431899999999999e-05,-9.677539676590196e-05,-8.777373697629598e-11,0.0010328830861852775,1.935565072983589e-08,-6.253786070754299e-05,-7.027265430081444e-10,1.43890928104047,78.36123630731488,83.04704244376703,9.242757210537548,-5592.595889035179,88.56109071895953,11.638763692685112,6.95295755623298,9.242757210537548,0.001039290109242216,1.9368602014563354e-08,0
2024-02-06 10:31:10.689667,0.016750356182456,9.40891456604004,2.2804415225982666,0,7.566699999999999e-05,-9.661088911721415e-05,-2.1811609366151635e-10,0.0010453243799474845,2.0756362562009372e-08,-5.974445628669032e-05,-7.851448246622577e-10,0.10200153205376343,76.37592385395193,89.57915717379778,9.681341199620174,5796.238638807233,89.89799846794624,13.62407614604807,0.42084282620222424,9.681341199620174,0.0010514780659935821,2.077235214971074e-08,0
2024-02-06 10:31:10.763917,0.2512553632259369,10.212931632995604,2.811666965484619,0,7.425e-05,-9.6800771169415e-05,-8.108393234844057e-11,0.0010314223019154678,1.928498753790948e-08,-6.335221515049701e-05,-6.979308329490111e-10,1.4092886479987456,74.60752523856235,84.89351507642895,10.59587527873887,12316.957294527883,88.59071135200126,15.392474761437645,5.106484923571053,10.59587527873887,0.0010378900988794867,1.9297782939731444e-08,0
2024-02-06 10:31:10.838917,0.0095716323703527,10.940375328063965,2.9528486728668213,0,7.5e-05,-9.670296104606639e-05,-1.5364783192924522e-10,0.0010393547920258652,2.006152894813747e-08,-6.119052178611525e-05,-7.446343593002402e-10,0.05012753050075074,74.89556332792021,89.81427689737505,11.331867419799275,9813.228547472076,89.94987246949925,15.104436672079792,0.18572310262494307,11.331867419799275,0.0010456357522285967,2.0075931652659726e-08,0
2024-02-06 10:31:10.914651,0.0454652532935142,9.40173625946045,0.8542681932449341,0,7.573399999999999e-05,-9.668276250902775e-05,-2.2462039247396445e-10,0.0010468203469784867,2.0827155224152064e-08,-5.979330989625224e-05,-7.890354255276688e-10,0.27707082507114217,84.8082009609705,86.95351905589824,9.440576567546092,-24972.810788459392,89.72292917492886,5.191799039029503,3.046480944101763,9.440576567546092,0.0010529746603422541,2.0843306502433278e-08,0
2024-02-06 10:31:10.989100,-1.2658483982086182,7.762593746185303,0.5049036145210266,0,7.4449e-05,-9.589866633841981e-05,-1.0088682443948083e-10,0.0010357922649498594,1.9489076620988118e-08,-6.066657778274186e-05,-7.11639947693916e-10,-9.26171783588853,86.27854364393785,158.2546346187101,7.88131724367944,-20943.992852377487,99.26171783588853,3.721456356062153,-68.25463461871009,7.88131724367944,0.0010419897331525472,1.950232594090369e-08,0
2024-02-06 10:31:11.079651,-1.591283917427063,9.55009651184082,-0.7489802241325378,0,9.055100000000001e-05,-0.00011890143861160268,-1.8302424693921121e-09,0.0011751767342172278,3.7289588033282346e-08,-6.263163856672413e-05,-1.704313887523467e-09,-9.459994055877498,94.48432603568699,-154.7947279506706,9.7106899480664,20202.678097281758,99.4599940558775,-4.484326035686992,-115.20527204932942,9.7106899480664,0.0011828358427520406,3.737335747582609e-08,0
2024-02-06 10:31:11.154624,-1.318492412567139,10.557510375976562,1.2562767267227173,0,7.4973e-05,-9.623719077727784e-05,-1.5452768508212126e-10,0.0010185585841680181,2.020258363837966e-08,-6.658297102539904e-05,-6.978612934104192e-10,-7.118623351313313,83.21407426009226,136.384202809745,10.713434500427724,13374.74227203557,97.11862335131332,6.7859257399077535,-46.384202809745005,10.713434500427724,0.0010252592249288123,2.0215223838880015e-08,0
2024-02-06 10:31:11.229644,-1.454888105392456,9.394556999206545,1.0887731313705444,0,7.502e-05,-9.630236521944988e-05,-1.5905236464804385e-10,0.001019027457751335,2.025046691036476e-08,-6.652786235373385e-05,-7.009893979948285e-10,-8.803179585971488,83.38925282824515,143.19046233033202,9.568689959558077,-15259.191427214704,98.80317958597149,6.610747171754849,-53.190462330332025,9.568689959558077,0.0010257275767314468,2.026322022479594e-08,0
2024-02-06 10:31:11.304656,-1.84014630317688,9.39216423034668,1.0241646766662598,0,7.501199999999999e-05,-9.62891850818156e-05,-1.5828199844683842e-10,0.0010189523108664166,2.0242314991290286e-08,-6.653631410496601e-05,-7.004571412889934e-10,-11.085178111292706,83.77679375194349,150.90113195810423,9.625372752877162,755.6496736400235,101.0851781112927,6.22320624805652,-60.90113195810422,9.625372752877162,0.001025652231547519,2.025504899042287e-08,0
2024-02-06 10:31:11.379633,-1.4883887767791748,9.346698760986328,0.7824809551239014,0,7.4977e-05,-9.623093571791638e-05,-1.5491289633284355e-10,0.0010186243807640684,2.0206657399186756e-08,-6.656793040352233e-05,-6.981278170100952e-10,-9.047936378599578,85.21450758140789,152.26804031165247,9.496754989184316,-1715.4295809761134,99.04793637859959,4.785492418592115,-62.268040311652484,9.496754989184316,0.0010253230278474855,2.0219307201346993e-08,0
2024-02-06 10:31:11.453894,-1.5960696935653689,9.38498592376709,1.6534994840621948,0,7.4261e-05,-9.512669958553303e-05,-8.640686289420887e-11,0.0010119184376469266,1.9479723070195623e-08,-6.744001140075095e-05,-6.501529738441655e-10,-9.651736467649487,80.00785580725994,133.9875143692818,9.662269909282095,2228.826976444961,99.65173646764949,9.992144192740056,-43.98751436928178,9.662269909282095,0.001018614828363286,1.9490761296749422e-08,0
2024-02-06 10:31:11.529495,-0.7848738431930542,10.72022819519043,1.6367491483688354,0,7.5601e-05,-9.672193175516117e-05,-2.1494544589247372e-10,0.0010253889311066281,2.08447190072605e-08,-6.523554481702217e-05,-7.390455965100734e-10,-4.187398252379347,81.31919984361102,115.61921571932034,10.872822415609049,16012.387485971794,94.18739825237935,8.680800156388985,-25.619215719320334,10.872822415609049,0.0010320044905067116,2.0858923760109917e-08,0
2024-02-06 10:31:11.604654,0.0287148971110582,8.537896156311035,0.6436922550201416,0,7.5159e-05,-9.655482062807705e-05,-1.7223128361577872e-10,0.0010211328856249463,2.039243768576283e-08,-6.573952236717113e-05,-7.101001066623671e-10,0.1926980816183032,85.68849173718802,87.4457478000899,8.56217466771379,-30743.460502338483,89.80730191838171,4.311508262811993,2.554252199910091,8.56217466771379,0.0010277922398482652,2.0405524265361524e-08,0
2024-02-06 10:31:11.694723,0.5144752264022827,8.13349437713623,1.2323477268218994,0,9.0069e-05,-9.250533825728509e-05,-1.5816747681061525e-09,0.0011454181020517957,3.654407529889293e-08,-5.175364430253872e-05,-1.5860116641850535e-09,3.6193594653490653,81.38435116905428,67.34064947217001,8.24239628150039,-3550.3712288734223,86.38064053465094,8.615648830945714,22.659350527829982,8.24239628150039,0.0011503122644797915,3.661265583814088e-08,0
2024-02-06 10:31:11.769749,0.3134709596633911,11.339991569519045,1.84014630317688,0,7.5026e-05,-9.873273549577805e-05,-1.4327759637248814e-10,0.000998948277504028,2.041522357506381e-08,-7.486340814917454e-05,-6.336615041694923e-10,1.5834218411618948,80.78292431968111,80.33240392324171,11.492598107321548,43321.00639539837,88.4165781588381,9.21707568031889,9.667596076758295,11.492598107321548,0.0010066033697869552,2.042555774003074e-08,0
2024-02-06 10:31:11.844304,0.5503688454627991,8.614469528198242,1.1055235862731934,0,7.4555e-05,-9.893616976988527e-05,-9.672656918242415e-11,0.0009942490019155155,1.9945825615760503e-08,-7.555711340814004e-05,-5.982374713427445e-10,3.6555950305031946,82.6870137757965,63.53424980773088,8.702538337641405,-37422.83910777471,86.34440496949681,7.312986224203503,26.46575019226912,8.702538337641405,0.0010020121360968164,1.995502953131446e-08,0
2024-02-06 10:31:11.920076,1.2562767267227173,7.427586555480957,0.1675035655498504,0,7.5772e-05,-9.783682593921038e-05,-2.1646293707141004e-10,0.0010040105930424344,2.116176657929243e-08,-7.478247638625571e-05,-6.897191117326352e-10,9.599958723051058,88.70811052561913,7.594643457622842,7.534940656550556,-15409.355449121696,80.40004127694894,1.2918894743808778,82.40535654237716,7.534940656550556,0.001011534346537843,2.1174109979233432e-08,0
2024-02-06 10:31:11.995089,2.232583284378052,8.171781539916992,0.1866468340158462,0,7.5013e-05,-9.916084831342313e-05,-1.4170231969253457e-10,0.0009980906328502309,2.0401969164066152e-08,-7.49168764628909e-05,-6.329082073263832e-10,15.280668793907111,88.691568449984,4.778888038137526,8.473327486794108,12509.656062863138,74.71933120609289,1.3084315500159986,85.22111196186248,8.473327486794108,0.0010057983513610312,2.0412275672198176e-08,0
2024-02-06 10:31:12.070083,1.4596738815307615,11.34477710723877,2.0770442485809326,0,7.499400000000001e-05,-9.919592475649924e-05,-1.3981793034837156e-10,0.000997905225543083,2.038300720341143e-08,-7.493838152817555e-05,-6.314845823754691e-10,7.331671396675715,79.62497828240771,54.90179602344197,11.625348522255798,42030.309564254334,82.6683286033243,10.375021717592299,35.09820397655803,11.625348522255798,0.0010056194268611516,2.039326615541873e-08,0
2024-02-06 10:31:12.144391,-0.382865309715271,8.339284896850586,0.9380199909210204,0,7.4308e-05,-9.956527009663196e-05,-7.164284051374622e-11,0.0009911535922756801,1.9700760028899578e-08,-7.597254856232474e-05,-5.797221333544265e-10,-2.6286634038204593,83.58222799397105,112.20347891419948,8.400603546150188,-43397.0094216721,92.62866340382047,6.417772006028959,-22.203478914199476,8.400603546150188,0.0009990347914990026,1.970941795601243e-08,0
2024-02-06 10:31:12.219606,-0.5575475692749023,8.013849258422852,1.742037057876587,0,7.5215e-05,-9.999174733725401e-05,-1.621419479200145e-10,0.0009985697386150968,2.0603099559458556e-08,-7.475714269069501e-05,-6.480780483376717e-10,-3.979826463299546,77.7359368599422,107.7475271098473,8.219935056905507,-2402.0273781118267,93.97982646329955,12.2640631400578,-17.747527109847294,8.219935056905507,0.0010063441274219553,2.0613927491503744e-08,0
2024-02-06 10:31:12.294486,0.0598227009177207,7.731485843658447,0.9906639456748962,1,7.488e-05,-9.990837842180418e-05,-1.28658676855372e-10,0.000995932394985498,2.0269020452080454e-08,-7.521487010878988e-05,-6.229577361937577e-10,0.4433196866275281,82.69826643514837,86.54430634620608,7.794925731493291,-5675.872401338361,89.55668031337247,7.3017335648516335,3.455693653793908,7.794925731493291,0.0010037531051737306,2.027899946947752e-08,0
2024-02-06 10:31:12.369622,1.366350531578064,9.337127685546877,0.0885375961661338,1,7.5136e-05,-9.972582824804473e-05,-1.5421185530911188e-10,0.0009981171775172363,2.0524258797360796e-08,-7.507673231143424e-05,-6.421950613035458e-10,8.325299493562246,89.45671959005425,3.707502777192322,9.436986070631052,21854.508346701467,81.67470050643776,0.5432804099457491,86.29249722280768,9.436986070631052,0.0010058924677167514,2.0534882394942575e-08,0
2024-02-06 10:31:12.459594,1.6870001554489136,11.00498390197754,1.8856115341186523,1,8.9972e-05,-7.707607285167861e-05,-1.4657283576668602e-09,0.0011490149612734925,3.645168500291043e-08,-6.0432494062981695e-05,-1.6474025025489636e-09,8.715266038760188,80.27726243224275,48.18195576478817,11.292084442868411,20618.61881738051,81.28473396123981,9.722737567757248,41.81804423521183,11.292084442868411,0.0011531817673616051,3.651831915868087e-08,0
2024-02-06 10:31:12.534662,1.8999689817428589,7.834381103515625,0.8016242384910583,1,7.5068e-05,-0.00010380616686203171,-1.1779390732029062e-10,0.0010086240132525573,2.0372959364742297e-08,-8.045777504046927e-05,-5.974882171900467e-10,13.632003178523657,84.15775220034548,22.875580660806232,8.101235142028903,-42506.118463786275,76.36799682147634,5.8422477996545235,67.12441933919376,8.101235142028903,0.0010171389157596644,2.0382059288789334e-08,0
2024-02-06 10:31:12.609614,1.1174880266189575,8.93990421295166,2.58673357963562,1,7.495200000000001e-05,-0.00010398117936851667,-1.0574224123892054e-10,0.0010076511047042024,2.025601540790082e-08,-8.065429979392058e-05,-5.881437168496534e-10,7.125016348901798,73.86236395067574,66.63529862156578,9.373465604481732,16973.936151841557,82.8749836510982,16.137636049324254,23.364701378434233,9.373465604481732,0.0010162076316135964,2.026482801946188e-08,0
2024-02-06 10:31:12.684658,2.51733922958374,8.42782211303711,2.256512403488159,1,7.5044e-05,-0.00010381397731473137,-1.1530081844634839e-10,0.0010084500201151976,2.0348756059642496e-08,-8.043151047869693e-05,-5.955536641221926e-10,16.63056560292286,75.01088340452446,41.87266515089187,9.08058536620269,-3902.7802126624542,73.36943439707714,14.989116595475537,48.12733484910814,9.08058536620269,0.0010169650991229398,2.0357795843863377e-08,0
2024-02-06 10:31:12.759607,2.0746512413024902,9.66256332397461,2.1249024868011475,1,7.4949e-05,-0.00010403209686209844,-1.0542812992294986e-10,0.0010075907268069396,2.0252994124163702e-08,-8.063962768598565e-05,-5.879027850593709e-10,12.118010444813196,77.59745382486713,45.68556019641553,10.108635829886786,13716.666849245432,77.8819895551868,12.40254617513288,44.31443980358448,10.108635829886786,0.0010161518092677865,2.0261799420798466e-08,0
2024-02-06 10:31:12.834363,4.142123699188232,10.509652137756348,2.0961875915527344,1,7.4756e-05,-0.00010463201564385581,-8.529204306612494e-11,0.0010056441080148824,2.0058716962603393e-08,-8.10469628785468e-05,-5.723000290698933e-10,21.510672820696783,78.72017490607253,26.842416764783433,11.489298464876045,18468.92068849669,68.48932717930322,11.279825093927476,63.15758323521657,11.489298464876045,0.0010143157993813274,2.0067060777346464e-08,0
2024-02-06 10:31:12.910069,3.9459054470062256,9.870745658874512,2.366586208343506,1,7.5706e-05,-0.00010079020179941346,-1.8286759635167743e-10,0.001015324796968282,2.101867719247039e-08,-7.892714532359609e-05,-6.482877304659109e-10,21.78943490378662,76.51739997485313,30.95353719741865,10.890478407325599,-7909.809758149237,68.21056509621339,13.482600025146867,59.04646280258135,10.890478407325599,0.001023363377489336,2.1029467621900063e-08,0
2024-02-06 10:31:12.984513,4.654206275939941,9.633848190307615,1.3304568529129028,1,7.4444e-05,-0.0001062168722965925,-5.224613259709742e-11,0.0010030173982494479,1.9745103267288002e-08,-8.12599794952489e-05,-5.472096547052195e-10,25.785642503113376,82.137055815407,15.953176306700447,10.781594615378328,-1462.6268328847314,64.21435749688662,7.862944184592998,74.04682369329956,10.781594615378328,0.0010118938231944746,1.9752753506801053e-08,0
2024-02-06 10:31:13.059411,3.2567479610443115,5.874589443206787,0.8231604099273682,1,7.4898e-05,-0.00010442108568479705,-1.000609490588735e-10,0.0010065378135922557,2.0201272300376075e-08,-8.077110837658415e-05,-5.839907116521261e-10,29.00305777390162,82.02352264412069,14.184729322586037,6.767185638688709,-53598.34677414109,60.99694222609838,7.976477355879314,75.81527067741396,6.767185638688709,0.0010151581676148067,2.020995942348139e-08,0
2024-02-06 10:31:13.134657,2.488624334335327,4.615919589996338,-1.7683590650558472,1,7.524599999999999e-05,-0.00010342139090540102,-1.3622553998556698e-10,0.001008363162164033,2.055186507015766e-08,-8.093557294257649e-05,-6.121276742016593e-10,28.330858151669208,110.96183923507459,-35.39672328372054,5.534171891233873,-16386.435790006588,61.669141848330796,-20.961839235074596,125.39672328372055,5.534171891233873,0.001016878959303318,2.0561430289482158e-08,0
2024-02-06 10:31:13.224596,15.67833423614502,12.053077697753906,1.916719436645508,1,8.993900000000001e-05,3.0042170232632998e-05,-6.753059846580579e-10,0.0011308219507384903,3.6267388502096065e-08,-7.984564347269305e-05,-1.7933068805964382e-09,52.44789497802842,80.96429882449739,6.9699799627800925,19.868584745954713,159379.27767398837,37.552105021971585,9.035701175502615,83.03002003721991,19.868584745954713,0.001134035335889433,3.631797704309643e-08,1
2024-02-06 10:31:13.299605,0.3374000489711761,7.317512989044189,2.467088222503662,1,7.5009e-05,-8.951528620575946e-05,-2.313391739186686e-10,0.0009862204912615424,2.0463666672565816e-08,-0.00011257076764824162,-3.5691837157866016e-10,2.6399565851130125,71.36854535611818,82.21251553669875,7.729576924741253,-161834.0175340754,87.36004341488699,18.63145464388182,7.787484463301267,7.729576924741253,0.000996652407601352,2.0468086432865202e-08,0
2024-02-06 10:31:13.374606,1.7755378484725952,8.695828437805176,2.366586208343506,1,7.5001e-05,-8.952373795734924e-05,-2.306230178220158e-10,0.000986156437895835,2.045577716484918e-08,-0.00011259010234596501,-3.5601772809868286e-10,11.540180493918175,74.77557005553587,53.12083473152673,9.185352315105915,19410.079737132328,78.45981950608183,15.22442994446414,36.87916526847327,9.185352315105915,0.0009965919680629245,2.0460174853041582e-08,0
2024-02-06 10:31:13.449280,5.520439147949219,16.80539321899414,2.6752712726593018,1,7.467400000000001e-05,-9.071663019626415e-05,-2.0115371762890135e-10,0.0009819869881549485,2.013398571468989e-08,-0.00011341444604410894,-3.1906598443690747e-10,18.18494402563402,80.9549110240201,25.85538696409418,17.890040972941918,116569.20290644672,71.81505597436598,9.045088975979898,64.14461303590583,17.890040972941918,0.00099266851892829,2.01375183843461e-08,1
2024-02-06 10:31:13.524274,0.1507532149553299,5.551546573638916,5.843481540679932,1,7.499400000000001e-05,-8.980923941819944e-05,-2.3003785676721526e-10,0.0009855640985217697,2.0448793888558162e-08,-0.00011205144559397467,-3.551405270990005e-10,1.5554946132729262,43.53243158191116,88.52218110128369,8.06155521021648,-131056.96139325063,88.44450538672707,46.46756841808884,1.4778188987163046,8.06155521021648,0.000995970791860687,2.045317123837445e-08,0
2024-02-06 10:31:13.599602,2.756630182266236,8.370392799377441,4.06315803527832,1,7.532800000000001e-05,-8.932370639086343e-05,-2.599530587173288e-10,0.0009878890623970635,2.0778360566431606e-08,-0.00011039703678478964,-3.922894236562542e-10,18.228318655954034,64.1071254592906,55.84525673760739,9.704212425400511,21806.728111512744,71.77168134404597,25.892874540709414,34.15474326239261,9.704212425400511,0.0009980436011808363,2.0783689143491563e-08,0
2024-02-06 10:31:13.674628,4.343128204345703,5.845874309539795,6.149773597717285,1,7.5026e-05,-9.039576990724187e-05,-2.3281541779631386e-10,0.000985742406063617,2.0480342214694032e-08,-0.00011193918946137205,-3.587166534930825e-10,36.61009816793297,43.54877176834782,54.76927886833841,9.531879371115703,-2296.9777715033165,53.38990183206703,46.45122823165217,35.23072113166159,9.531879371115703,0.0009961876672929053,2.048480651329749e-08,0
2024-02-06 10:31:13.749543,4.663777828216553,5.8913397789001465,15.257182121276855,1,7.4915e-05,-9.089565319204908e-05,-2.2275374381430327e-10,0.0009850909906817084,2.0370960961174668e-08,-0.00011312727550377622,-3.462254646875168e-10,38.36629267605133,21.113345248092145,73.0027847912974,17.007066599011885,99782.249588149,51.63370732394868,68.88665475190786,16.997215208702602,17.007066599011885,0.000995722883213189,2.037512065693069e-08,1
2024-02-06 10:31:13.824429,2.261298179626465,3.563040256500244,6.453673362731934,1,7.4886e-05,-9.099606679416279e-05,-2.2011631387450359e-10,0.0009849539021711952,2.0342395310228306e-08,-0.0001134420829082943,-3.429402089905423e-10,32.401422333334914,28.902865671226003,70.6900844563902,7.710941913894761,-124137.01740134505,57.598577666665086,61.09713432877401,19.30991554360982,7.710941913894761,0.0009956322512598937,2.034647650420521e-08,0
2024-02-06 10:31:13.899593,4.919818878173828,3.266319513320923,7.1356520652771,1,7.5164e-05,-8.999789152312855e-05,-2.4527447408060705e-10,0.0009859031831792003,2.0616344445092012e-08,-0.00011155316667380104,-3.7421454868245353e-10,56.41939772413025,24.595770916762273,55.41489722036128,9.26234264934255,20640.209880365455,33.58060227586975,65.40422908323774,34.58510277963872,9.26234264934255,0.0009962674420437724,2.0621199149776846e-08,0
2024-02-06 10:31:13.974684,3.752079963684082,4.658992290496826,8.052135467529297,1,7.5091e-05,-9.031441583085635e-05,-2.3869307486218683e-10,0.000985613909298361,2.0544384071216583e-08,-0.00011210752091874846,-3.6605093358532575e-10,38.84593659958499,30.05381654764938,65.01573871828427,10.031011853458836,10236.502431933064,51.15406340041502,59.94618345235062,24.984261281715735,10.031011853458836,0.0009960720697599216,2.0549031231073242e-08,0
2024-02-06 10:31:14.064496,3.618077039718628,3.886082649230957,8.205282211303711,1,8.9812e-05,-3.606637520731071e-05,-1.1689188872986154e-09,0.0010485099333922272,3.551655261534065e-08,7.555201906301863e-06,-1.1356082776764387e-09,42.95459222534875,25.342582987117925,66.20516553104592,9.773370758808351,-2868.671164771794,47.04540777465125,64.65741701288208,23.794834468954082,9.773370758808351,0.0010491572546184925,3.555392365412953e-08,0
2024-02-06 10:31:14.139618,2.5197322368621826,4.182803153991699,8.935118675231934,1,7.512199999999999e-05,-8.11485843437968e-05,-3.079750093957302e-10,0.0009892439671675567,2.0549250215729033e-08,-0.00011834104260530253,-3.2188627774227823e-10,31.06487643962513,25.085735706750363,74.25137719929714,10.18239846553865,5444.845807224238,58.93512356037487,64.91426429324963,15.748622800702863,10.18239846553865,0.000999596579467596,2.0554078520110084e-08,0
2024-02-06 10:31:14.214478,2.129688262939453,4.405344009399414,9.033227920532228,1,7.486e-05,-8.175765842927079e-05,-2.86634291592459e-10,0.0009881189198891526,2.0290215677524612e-08,-0.00012069489600934756,-2.9057256978376003e-10,25.800651093010146,25.997665367699426,76.73410309671672,10.27335556684068,1215.029405584149,64.19934890698985,64.00233463230057,13.265896903283277,10.27335556684068,0.000998814583632743,2.029432048322616e-08,0
2024-02-06 10:31:14.289601,1.6941789388656616,3.4553592205047607,8.731721878051758,1,7.512299999999999e-05,-8.125481989223343e-05,-3.0807043249173633e-10,0.000989152602363885,2.055022688270088e-08,-0.00011835880511083382,-3.2200813148106317e-10,26.11893120445513,21.58993595677606,79.01957608771131,9.542154713442397,-9733.381965553599,63.88106879554487,68.41006404322394,10.980423912288689,9.542154713442397,0.0009995168949378643,2.0555058296161496e-08,0
2024-02-06 10:31:14.364600,2.0961875915527344,4.347914218902588,8.619255065917969,1,7.499899999999999e-05,-8.148982261711937e-05,-2.979802646561564e-10,0.0009886687994106417,2.042760195579086e-08,-0.00011943456568135994,-3.0726494249194706e-10,25.7393376763019,26.768295241899782,76.33112779178494,9.878760973182189,4488.143305107963,64.26066232369811,63.23170475810023,13.66887220821506,9.878760973182189,0.0009991852689054939,2.0432085690091448e-08,0
2024-02-06 10:31:14.439592,2.579555034637451,4.594383716583252,8.293819427490234,1,7.4992e-05,-8.1506187716311e-05,-2.9740977861999035e-10,0.0009886375013678675,2.0420681383738148e-08,-0.00011949376144208677,-3.064286933470164e-10,29.312395555468978,28.984379398816213,72.72319007047625,9.825981203307036,-703.8053375713822,60.68760444453102,61.01562060118379,17.276809929523743,9.825981203307036,0.0009991627128603854,2.042514575949643e-08,0
2024-02-06 10:31:14.514505,3.05574369430542,4.182803153991699,8.305784225463867,1,7.491299999999999e-05,-8.172878201610427e-05,-2.909619973155591e-10,0.0009882908024864798,2.034259271573589e-08,-0.00012014944578637855,-2.9696278666149077e-10,36.149968183888255,26.729881519610384,69.80115366250153,9.788741663272898,-497.10384091062804,53.85003181611175,63.27011848038962,20.198846337498466,9.788741663272898,0.000998916509730408,2.034684064366885e-08,0
2024-02-06 10:31:14.589607,1.837753415107727,4.840853214263916,7.82241678237915,1,7.5102e-05,-8.126634653926471e-05,-3.063650369640421e-10,0.00098914353801328,2.0529460260913126e-08,-0.00011862533079113732,-3.1952700304806694e-10,20.788474336381267,31.75103188284493,76.7790203239332,9.380906234156505,-5430.42034987607,69.21152566361873,58.24896811715507,13.22097967606681,9.380906234156505,0.000999540457899817,2.0534232287718042e-08,0
2024-02-06 10:31:14.664604,2.1823322772979736,5.111251831054688,8.052135467529297,1,7.4997e-05,-8.147740103811601e-05,-2.9782099021622964e-10,0.0009886210524984009,2.0425627619911264e-08,-0.00011945874478425751,-3.0702758908035873e-10,23.120848992612512,32.4061439511209,74.83568622536872,9.783882411212828,5373.2306233092295,66.87915100738749,57.59385604887909,15.164313774631282,9.783882411212828,0.0009991399021300282,2.0430105896689614e-08,0
2024-02-06 10:31:14.753869,2.931312322616577,4.7953877449035645,7.987527370452881,1,8.926499999999999e-05,-4.4996660462325625e-05,-1.2000869449603798e-09,0.001059295019233287,3.5035460875645115e-08,-5.0317900980927045e-06,-1.1951430649310448e-09,31.436503566265635,30.978898575186406,69.84755998600498,9.766725605361758,-192.20081612131722,58.56349643373437,59.021101424813594,20.152440013995033,9.766725605361758,0.0010602622110293298,3.507637516035511e-08,0
2024-02-06 10:31:14.829594,2.964813232421875,4.663777828216553,8.119136810302734,1,7.5725e-05,-8.491343046993593e-05,-3.2059562934896924e-10,0.000995256468303264,2.112614730502267e-08,-0.00011407390660180818,-3.8879749827271595e-10,32.44455488393653,29.87383237053278,69.93964664823343,9.821472581976748,722.9709688344603,57.55544511606347,60.126167629467226,20.060353351766572,9.821472581976748,0.0010053649011881488,2.1132156657703855e-08,0
2024-02-06 10:31:14.904598,3.400322437286377,5.101680278778076,7.568768501281738,1,7.5004e-05,-8.720806187886574e-05,-2.585458313572266e-10,0.0009917360206556924,2.040983651275297e-08,-0.00011972939646663435,-3.0451140751654297e-10,33.68386446677435,33.981689441399,65.807665104522,9.74041020544725,-1080.7740457775376,56.31613553322565,56.01831055860101,24.192334895477995,9.74041020544725,0.0010027366100332233,2.0413745359965773e-08,0
2024-02-06 10:31:14.979596,3.780794858932495,4.728386402130127,6.977719783782959,1,7.499799999999999e-05,-8.722960523075444e-05,-2.580225183558966e-10,0.0009917065304556496,2.040388618509962e-08,-0.00011977303593148964,-3.0379290021934704e-10,38.645661619220355,34.12316211228973,61.54947496160255,9.237998761321393,-6698.997894955286,51.354338380779645,55.876837887710266,28.45052503839745,9.237998761321393,0.0010027145290227631,2.0407778840449577e-08,0
2024-02-06 10:31:15.054588,4.28809118270874,5.161502838134766,7.145223617553711,1,7.4992e-05,-8.725381188887931e-05,-2.574990681045389e-10,0.000991676860787929,2.0397936034925903e-08,-0.00011981540476169355,-3.0307413489726917e-10,39.71924170269388,35.84325743934524,59.03060112212172,9.80219659485286,7523.440280716181,50.280758297306114,54.15674256065477,30.969398877878273,9.80219659485286,0.0010026923531819467,2.04018125220836e-08,0
2024-02-06 10:31:15.144596,4.819316864013672,5.541975021362305,6.9609694480896,1,9.000800000000001e-05,-1.887539227408741e-05,-1.0543171329600935e-09,0.001072038572557033,3.5892311508479885e-08,-1.3906107224843532e-05,-1.3070552468921902e-09,41.01031226782881,38.525046029561956,55.30382173467799,10.119011702256655,3519.8549840435776,48.9896877321712,51.47495397043805,34.69617826532202,10.119011702256655,0.0010722949040733946,3.593157390731777e-08,0
2024-02-06 10:31:15.204559,4.99160623550415,5.40797233581543,6.434529781341553,1,5.9963e-05,-0.00016625998453659394,1.7268790651783679e-09,0.0009075429883838304,6.154047509245755e-09,-0.00021513999439897306,2.1337898147515956e-09,42.70728345248189,40.04574723493263,52.197368698539236,9.775759361923772,-5724.402387020051,47.29271654751812,49.95425276506738,37.80263130146077,9.775759361923772,0.0009473974221058193,6.738506587170695e-09,0
2024-02-06 10:31:15.279613,4.819316864013672,5.350542545318604,6.104308605194092,1,7.505399999999999e-05,-9.223166428918227e-05,-2.23569671036525e-10,0.0009887213624194273,2.0462310168231723e-08,-0.00012052818935336843,-3.9899446575169503e-10,42.00985522007243,41.235181075834944,51.70910906346218,9.440164411305435,-4471.379948015249,47.990144779927576,48.76481892416506,38.29089093653783,9.440164411305435,0.0010003017828789883,2.0467420878127933e-08,0
2024-02-06 10:31:15.354626,5.865017890930176,5.675978183746338,4.725993633270264,1,7.5013e-05,-9.24506931516586e-05,-2.1978368270898822e-10,0.0009884953187444814,2.042177722626787e-08,-0.00012075021054925692,-3.940482585536918e-10,45.93841197087343,50.2181962225342,38.86164335545523,9.431340256029706,-117.63501360735985,44.061588029126575,39.7818037774658,51.13835664454477,9.431340256029706,0.0010001253617380503,2.0426760976145175e-08,0
2024-02-06 10:31:15.429615,5.692728519439697,5.924840450286865,5.278755187988281,1,7.4989e-05,-9.258938610858303e-05,-2.1756320175786546e-10,0.0009883561089208729,2.0398055009135885e-08,-0.00012087026753511202,-3.9114881281667956e-10,43.85541760769071,48.30045875125035,42.839154770151374,9.766071302837736,4463.735305285164,46.14458239230929,41.69954124874965,47.16084522984863,9.766071302837736,0.0010000151069034819,2.040296496336404e-08,0
2024-02-06 10:31:15.519566,6.066021919250488,5.766908645629883,4.390986442565918,1,8.9951e-05,-4.622174076741693e-06,-9.448028835042802e-10,0.001075822083907426,3.5840172069684405e-08,-4.8530930396936006e-05,-1.6584391745463318e-09,46.44801655174491,52.71396346894751,35.89949725823783,9.451699275297843,-3494.9253208957393,43.55198344825509,37.28603653105249,54.10050274176218,9.451699275297843,0.001076926075420827,3.589095996165238e-08,0
2024-02-06 10:31:15.594614,6.563746929168701,6.0253424644470215,3.677899837493897,1,7.5048e-05,-9.87328966507373e-05,-1.746525739784703e-10,0.000987952124760688,2.046195855379395e-08,-0.00010865623651280172,-4.87159000318421e-10,47.448907567393086,58.59989546348795,29.263454019064465,9.639215361152468,2498.615364228563,42.551092432606914,31.400104536512053,60.73654598093553,9.639215361152468,0.0009988011631117222,2.046850202800317e-08,0
