timestamp,ax,ay,az,fall_state,time_interval,vx,dx,vy,dy,vz,dz,angle_xy,angle_yz,angle_zx,g_force,jerk,orientation_xy,orientation_yz,orientation_zx,magnitude_acceleration,magnitude_velocity,magnitude_displacement,impact_detection
2024-02-06 10:00:42.430037,-0.5623334050178528,8.858545303344727,0.4522596299648285,0,0.0,0.0,0.0,0.0,0.0,0.0,0.0,-3.6322169061721743,87.07738810919165,141.1918344182286,8.887889655182821,inf,93.63221690617218,2.9226118908083625,-51.1918344182286,8.887889655182821,0.0,0.0,1
2024-02-06 10:00:42.504867,-0.7370156645774841,8.805901527404785,0.6867645978927612,0,7.483e-05,-4.8615145438909533e-05,-1.8189356665968002e-09,0.0006609152781724929,2.4728145132823823e-08,4.261659148529172e-05,1.5944997704221897e-09,-4.7842572006819895,85.54057857857931,137.02136488398833,8.863336810315928,-328.11499220757446,94.78425720068199,4.45942142142069,-47.02136488398833,8.863336810315928,0.0006640697336558069,2.4846169084732012e-08,0
2024-02-06 10:00:42.579836,-0.3565433025360107,9.480701446533203,0.746587336063385,0,7.496899999999999e-05,-4.869114778712392e-05,-1.8256984539760092e-09,0.0006621861970791816,2.482010068535381e-08,4.271620944470167e-05,1.600430400086824e-09,-2.1537229118489507,85.49735757588451,115.5274656139681,9.516733457192666,8715.55772221502,92.15372291184894,4.50264242411549,-25.527465613968108,9.516733457192666,0.000665346572865856,2.493856351800306e-08,0
2024-02-06 10:00:42.654867,-1.072022795677185,9.56684684753418,0.181861013174057,0,7.503100000000001e-05,-4.873543333616854e-05,-1.828718677990832e-09,0.0006627766710762978,2.486117453426664e-08,4.2744991343528036e-05,1.6030796973112597e-09,-6.393665323534361,88.91096681709877,170.37184370562719,9.628440419233995,1488.8107854264001,96.39366532353436,1.0890331829012314,-80.37184370562721,9.628440419233995,0.0006659393309231716,2.4979833380998205e-08,0
2024-02-06 10:00:42.729828,0.4857603311538696,10.150715827941896,1.799466848373413,0,7.4961e-05,-4.871491414991022e-05,-1.8253079158288191e-09,0.0006620865563826561,2.4814804321305575e-08,4.267564486837387e-05,1.6000899750438428e-09,2.7397870843173533,79.94733603720087,74.89326553300081,10.320420333365682,9231.199078610045,87.26021291568264,10.052663962799144,15.10673446699919,10.320420333365682,0.0006652465420189786,2.4933241875466357e-08,0
2024-02-06 10:00:42.804842,1.2132043838500977,11.653462409973145,-0.93323415517807,0,7.5014e-05,-4.8669891584962615e-05,-1.827888613180793e-09,0.0006626643671059607,2.4849910220778018e-08,4.269860003474354e-05,1.6023523925337752e-09,5.9434683027357025,94.57859731703803,-37.56859243694111,11.753551676239873,19104.851666011557,84.0565316972643,-4.578597317038031,127.56859243694113,11.753551676239873,0.0006658197896005814,2.49685151331188e-08,0
2024-02-06 10:00:42.894826,1.4812101125717163,8.248353958129883,-0.8614469170570374,0,8.9984e-05,-2.8502199079245337e-05,-2.4055217118023895e-09,0.0008116294626212119,3.5884999536285904e-08,2.9265412209063763e-05,2.141003024178673e-09,10.180465890692757,95.96227860107966,-30.181563401607555,8.424453525724307,-36996.55661579355,79.81953410930724,-5.962278601079652,120.18156340160755,8.424453525724307,0.0008126568921130962,3.602920510328717e-08,0
2024-02-06 10:00:42.954809,0.8135887384414673,10.002355575561523,-0.4235447347164154,0,5.9983000000000005e-05,-6.292532924386859e-05,-1.0340630731915193e-09,0.000537859694261074,1.5641987438473177e-08,4.854092948149144e-05,9.738689956495e-10,4.650184892081518,92.42471254953755,-27.500955497458154,10.044323463409144,27005.48384850437,85.34981510791849,-2.4247125495375466,117.50095549745816,10.044323463409144,0.0005436992455448071,1.5706351526862574e-08,0
2024-02-06 10:00:43.044128,0.5527617931365967,9.554882049560549,-0.3158638775348663,0,8.931899999999999e-05,-4.288369964668156e-05,-2.586069908958108e-09,0.0008247252557463643,3.562838348518227e-08,3.7695283956989647e-05,2.23878177436514e-09,3.31094164414839,91.893385894432,-29.7448809642678,9.576068429689574,-5242.501972923683,86.68905835585161,-1.8933858944319972,119.74488096426781,9.576068429689574,0.0008266992763961336,3.579220042375792e-08,0
2024-02-06 10:00:43.118990,1.0768086910247805,9.126551628112791,-0.1722893863916397,0,7.4862e-05,-5.466304989144207e-05,-1.8809532299217817e-09,0.0006896865124073027,2.46814580190835e-08,4.1223899825282396e-05,1.668314454394987e-09,6.729011704564037,91.08149087532745,-9.09027670435905,9.191471330006854,-5137.414171177903,83.27098829543596,-1.0814908753274501,99.09027670435906,9.191471330006854,0.000693076434700234,2.4809184350148994e-08,0
2024-02-06 10:00:43.194331,0.2321120798587799,9.985605239868164,-0.8399107456207275,0,7.534100000000001e-05,-5.434956336681545e-05,-1.907061750797135e-09,0.0006942638739771842,2.5012914136622592e-08,4.098147789366543e-05,1.6880026423586753e-09,1.3315815901433048,94.80795410267872,-74.55168858189727,10.023554164302604,11044.223388271332,88.6684184098567,-4.8079541026787185,164.55168858189725,10.023554164302604,0.000697592777541683,2.514223759031836e-08,0
2024-02-06 10:00:43.269789,-1.4405306577682495,10.26796817779541,0.2464695274829864,0,7.5458e-05,-5.442025585362314e-05,-1.9134247852215296e-09,0.0006954487080221174,2.5094212322669543e-08,4.0946761582404377e-05,1.6927954443680248e-09,-7.986110789470724,88.624951675538,170.29091432543888,10.371453432579598,4610.502110803274,97.98611078947073,1.3750483244620064,-80.29091432543888,10.371453432579598,0.000698775433899112,2.5223922036836245e-08,0
2024-02-06 10:00:43.344799,-0.9356270432472228,8.502002716064453,-0.3948298394680023,0,7.500999999999999e-05,-5.3887996528595666e-05,-1.8891637366879124e-09,0.0006912442345418927,2.47835931035352e-08,4.097999429228902e-05,1.6744438510520931e-09,-6.2800067933883215,92.65888434026346,-157.12050329167545,8.56243766401585,-24116.994648230215,96.28000679338832,-2.658884340263445,-112.87949670832457,8.56243766401585,0.0006945515588417243,2.4911828294124468e-08,0
2024-02-06 10:00:43.419783,-0.588655412197113,9.509416580200195,0.0119645409286022,0,7.4984e-05,-5.38681808566749e-05,-1.8877629063819046e-09,0.0006910100860910413,2.476562379736698e-08,4.098497154117003e-05,1.6733783064962585e-09,-3.5422246006763984,89.92791173554008,178.83561195692943,9.527626254232214,12871.927214023848,93.5422246006764,0.07208826445992823,-88.83561195692943,9.527626254232214,0.0006943172818536108,2.489377363559156e-08,0
2024-02-06 10:00:43.494788,-0.6030128598213196,10.028677940368652,0.8470894694328308,0,7.5005e-05,-5.3880693373531096e-05,-1.888894269561322e-09,0.0006912152360835074,2.4780137163249816e-08,4.0993991608278825e-05,1.6742390856093279e-09,-3.440986318141814,85.17187431500007,125.44571109855299,10.08243851010115,7397.003611345067,93.44098631814182,4.828125684999943,-35.44571109855299,10.08243851010115,0.0006945229579073473,2.490835594548219e-08,0
2024-02-06 10:00:43.569737,-0.4355092644691467,9.655384063720703,0.9786993861198424,0,7.4949e-05,-5.3851614754050965e-05,-1.88587776493375e-09,0.0006906640823473928,2.474144454233375e-08,4.0942869520323347e-05,1.671944853497727e-09,-2.5825944516569455,84.21209234409046,113.98847945363084,9.71462620103221,-4907.50122174999,92.58259445165695,5.7879076559095335,-23.98847945363085,9.71462620103221,0.0006939691561020152,2.4869479539764913e-08,0
2024-02-06 10:00:43.644809,-1.1222739219665527,9.198338508605955,1.296956181526184,0,7.5072e-05,-5.394741842001676e-05,-1.892507405473955e-09,0.0006918235862855909,2.4826467533954677e-08,4.108282233773358e-05,1.6769894335469976e-09,-6.9561816955434015,81.97426128434292,130.87008417866562,9.356870492404413,-4765.5012338527995,96.9561816955434,8.02573871565708,-40.870084178665614,9.356870492404413,0.0006951388327424059,2.4954906692963366e-08,0
2024-02-06 10:00:43.779784,-1.112702250480652,9.447200775146484,1.2873845100402832,0,0.00013497500000000001,-0.00012088830724906922,-7.1290996428515846e-09,0.0012502854561429024,8.29955465182517e-08,0.00011848770256118664,6.4563660100570075e-09,-6.7174151348291735,82.24001497419866,130.83725887923103,9.599222242496769,1795.530654509024,96.71741513482918,7.759985025801339,-40.83725887923102,9.599222242496769,0.0012616921337355795,8.355099918993672e-08,0
2024-02-06 10:00:43.809730,-1.4788172245025637,9.53334617614746,1.335242748260498,0,2.9946e-05,1.5204042219936882e-05,-1.5791433069792138e-09,0.00025353152326917645,4.023349752916077e-09,-1.9238256594849746e-05,1.2443309798578079e-09,-8.817473844278497,82.02700451533843,137.9207212739735,9.73932558725362,4678.532851026924,98.8174738442785,7.972995484661581,-47.92072127397348,9.73932558725362,0.0002547145592772896,4.49771012913249e-09,0
2024-02-06 10:00:43.885140,-0.8686256408691406,9.6697416305542,1.404637098312378,0,7.541000000000001e-05,-3.815802899569271e-05,-2.1009333343656953e-09,0.0006900561152911188,2.5472983952668713e-08,4.304469207744489e-05,1.7854988712481608e-09,-5.133059778033793,81.73496264727073,121.73258934908564,9.809761418281472,934.0383374598962,95.1330597780338,8.265037352729264,-31.732589349085647,9.809761418281472,0.0006924495093099193,2.5621764938184783e-08,0
2024-02-06 10:00:43.960087,0.3493645787239074,9.547703742980955,0.5814766883850098,0,7.4947e-05,-3.803782005980609e-05,-2.083293995309347e-09,0.0006856072766871453,2.5154517877425738e-08,4.258490673582443e-05,1.7656756191228885e-09,2.0956022202844116,86.51486245993323,59.00158293287136,9.571771910766296,-3175.4374093049146,87.90439777971558,3.485137540066764,30.99841706712864,9.571771910766296,0.0006879808775561751,2.530232190745719e-08,0
2024-02-06 10:00:44.050264,0.5001177787780762,11.306490898132324,0.6269419193267822,0,9.017699999999999e-05,-3.156901190742849e-05,-2.6133500207398377e-09,0.0008444119688792228,3.680561443241362e-08,5.178701443354972e-05,2.484317798827672e-09,2.532701981500737,86.82621435517413,51.42028897071343,11.334897899514056,19551.836818121694,87.46729801849928,3.1737856448258683,38.579711029286564,11.334897899514056,0.0008465873082932661,3.6981815626115046e-08,0
2024-02-06 10:00:44.124813,0.7681235074996948,9.887495994567873,0.3254354894161224,0,7.454900000000001e-05,-4.147904931840298e-05,-2.0425524703211915e-09,0.0006788021552996637,2.4903219266079818e-08,4.434513736163267e-05,1.7331411647001179e-09,4.442178076521149,88.11485625881654,22.961207259196456,9.922625611356143,-18944.21505530474,85.55782192347885,1.8851437411834486,67.03879274080354,9.922625611356143,0.000681512559517027,2.504687862200083e-08,0
2024-02-06 10:00:44.184658,1.3759222030639648,8.119136810302734,-0.1435744911432266,0,5.9845e-05,-5.724207338246701e-05,-1.3167547762243951e-09,0.0005464173909182549,1.5895405162285674e-08,4.3008095302330344e-05,1.0909201981546614e-09,9.618337446185073,91.01308245962173,-5.957131130721076,8.236149469734283,-28180.735928178794,80.38166255381493,-1.0130824596217267,95.95713113072108,8.236149469734283,0.0005510883017489765,1.5987115289903604e-08,0
2024-02-06 10:00:44.259812,1.1222739219665527,10.301469802856444,0.0071787242777645,0,7.515399999999999e-05,-3.8119631143420925e-05,-2.046700943517804e-09,0.0006874179242386817,2.533979758215444e-08,4.1964053904858665e-05,1.7413395142610892e-09,6.217458964286468,89.96007263577962,0.36649251641332237,10.362423963010373,28292.23319152794,83.78254103571354,0.03992736422037745,89.63350748358668,10.362423963010373,0.0006897517601740921,2.5481887480339517e-08,0
2024-02-06 10:00:44.334597,1.1557745933532717,9.70563507080078,0.7705163955688477,0,7.478500000000001e-05,-3.853993109449741e-05,-2.0325572542849087e-09,0.0006837266133894921,2.5086821414962054e-08,4.182056915524697e-05,1.7258812513065004e-09,6.790964407649914,85.46089055428381,33.690067525979785,9.804532755518714,-7459.9345790152975,83.20903559235009,4.5391094457161865,56.30993247402022,9.804532755518714,0.0006860877262787183,2.522813040619055e-08,0
2024-02-06 10:00:44.409088,1.56256902217865,8.999727249145508,0.5719050168991089,0,7.4491e-05,-3.8939527605980614e-05,-2.021167773855938e-09,0.00068097692512846,2.488620999479991e-08,4.1623233207614174e-05,1.7136150123591595e-09,9.849733719153646,86.36391840460203,20.102779536704638,9.152255888929181,-8756.452008827013,80.15026628084637,3.6360815953979695,69.89722046329535,9.152255888929181,0.0006833581439554551,2.5026886412135557e-08,0
2024-02-06 10:00:44.499636,1.217990159988403,9.459165573120115,0.5838695764541626,0,9.0548e-05,-1.6615808211952427e-05,-2.4671937874702134e-09,0.0008291741461520195,3.701045787057524e-08,5.0902369530350914e-05,2.4564568139409123e-09,7.3372018949381825,86.46788362350799,25.611724018468905,9.555114706367378,4449.11889205943,82.66279810506182,3.532116376492007,64.3882759815311,9.555114706367378,0.0008309012582450886,3.71738512539838e-08,0
2024-02-06 10:00:44.574767,1.100737690925598,9.39216423034668,0.6436922550201416,0,7.513100000000001e-05,-3.4489721850722996e-05,-2.0732468089820803e-09,0.0006838586703619958,2.5347244404476957e-08,4.143970915243124e-05,1.7446379004146864e-09,6.684426436181388,86.0793628528204,30.318353290814862,9.478328550604308,-1022.0302639798516,83.31557356381862,3.920637147179608,59.681646709185145,9.478328550604308,0.0006859806640403614,2.5491663590962558e-08,0
2024-02-06 10:00:44.649864,1.103130578994751,9.535738945007324,1.0313433408737185,0,7.5097e-05,-3.452718761131165e-05,-2.0720735215212255e-09,0.0006835368960080147,2.5323998679848663e-08,4.141123354730104e-05,1.7432294343887907e-09,6.598861238358536,83.82713661179058,43.073738001400514,9.65457836409272,2346.9621088513677,83.40113876164146,6.172863388209424,46.92626199859949,9.65457836409272,0.0006856600507193979,2.5468357753818472e-08,0
2024-02-06 10:00:44.724778,1.170132040977478,9.377806663513184,1.05048668384552,0,7.4914e-05,-3.473519114103912e-05,-2.065736013865385e-09,0.0006818063065848351,2.5199069776811413e-08,4.122074610003922e-05,1.7356686082510588e-09,7.112420326325605,83.60846479765743,41.91592618619249,9.508732254327658,-1946.8471816357642,82.8875796736744,6.391535202342561,48.084073813807514,9.508732254327658,0.0006839338587257562,2.5343104158986897e-08,0
2024-02-06 10:00:44.799781,1.718108057975769,9.64581298828125,1.3496001958847046,0,7.5003e-05,-3.460666445663569e-05,-2.0688217264394817e-09,0.00068265285765934,2.5259788209620284e-08,4.132754996618722e-05,1.739342007426006e-09,10.09958013312245,82.03512964488192,38.150177285515745,9.890147834714533,5085.337658318668,79.90041986687756,7.964870355118071,51.84982271448426,9.890147834714533,0.0006847777096850371,2.5403980679205704e-08,0
2024-02-06 10:00:44.874790,0.4546525478363037,12.112900733947754,1.416601538658142,0,7.5009e-05,-3.4600146174818256e-05,-2.069029346871376e-09,0.0006827181338005067,2.5263884322594662e-08,4.133584857139085e-05,1.7395899976216187e-09,2.149563488481877,83.32956994155498,72.20617660630921,12.20392695197143,30846.686627696647,87.85043651151813,6.670430058445018,17.793823393690793,12.20392695197143,0.0006848429547804974,2.5408087430255047e-08,0
2024-02-06 10:00:44.949826,0.6269419193267822,9.906639099121094,0.184253916144371,0,7.5036e-05,-3.458554464951155e-05,-2.0699633536975044e-09,0.0006830153975882532,2.5282321725268415e-08,4.135746012003069e-05,1.7407063572889532e-09,3.6211358752497453,88.93447670826654,16.377699352293213,9.928167198232435,-30328.905508542506,86.37886412475025,1.0655232917334554,73.6223006477068,9.928167198232435,0.000685139863640208,2.5426572689372355e-08,0
2024-02-06 10:00:45.024809,-1.4094228744506836,6.314884662628174,-1.416601538658142,0,7.4983e-05,-3.456480890420076e-05,-2.068130869328331e-09,0.0006825855272085667,2.5246133300761295e-08,4.139011733202731e-05,1.7385135464864733e-09,-12.581669610580771,102.64369697862226,-134.85445763488235,6.623518782388254,-44071.968524121214,102.58166961058078,-12.643696978622257,-135.14554236511768,6.623518782388254,0.0006847122532728182,2.5390290295382485e-08,0
2024-02-06 10:00:45.099376,1.2060257196426392,12.574731826782228,0.0311078056693077,0,7.456699999999999e-05,-3.4522502296000684e-05,-2.053760708598689e-09,0.0006786564869787693,2.4962994961810327e-08,4.167830002848899e-05,1.7212353156754857e-09,5.478404975310988,89.85826001194867,1.4775396835773629,12.632471897752357,80584.61672541611,84.521595024689,0.1417399880513346,88.52246031642264,12.632471897752357,0.0006808109217517054,2.5106407579012175e-08,1
2024-02-06 10:00:45.174662,0.0837517827749252,8.753257751464844,0.6891575455665588,0,7.528600000000001e-05,-3.4058827283881555e-05,-2.078415696582657e-09,0.0006863238992321493,2.5453705410653166e-08,4.193723542225829e-05,1.75129510067003e-09,0.5481933000542762,85.49830067268785,83.07094982682456,8.780744487075607,-51161.27049752609,89.45180669994572,4.501699327312161,6.929050173175436,8.780744487075607,0.0006884469696992185,2.559839771293794e-08,0
2024-02-06 10:00:45.263995,-0.2345049977302551,8.968619346618652,0.4690099954605102,0,8.9333e-05,-3.511764248912031e-05,-2.5642766320333347e-09,0.0008107935030305386,3.596870948544514e-08,5.00716251466619e-05,2.39751933287584e-09,-1.4977874934453144,87.00646930223078,116.56505117707799,8.983935438010711,2274.534057236455,91.49778749344532,2.9935306977692187,-26.56505117707799,8.983935438010711,0.0008130968706220394,3.6139613662094636e-08,0
2024-02-06 10:00:45.339783,0.1627177447080612,9.423272132873535,1.1820966005325315,0,7.5788e-05,-3.4631463318027506e-05,-2.0919008129544264e-09,0.0006862344179856778,2.5830087890362823e-08,3.888950572529903e-05,1.795030074045485e-09,0.9892650276718367,82.84991521391143,82.16238660620466,9.4985202598944,6789.792868048889,89.01073497232817,7.150084786088574,7.837613393795337,9.4985202598944,0.0006882073875913045,2.5976751575241953e-08,0
2024-02-06 10:00:45.429797,-0.0693943351507186,9.569239616394045,1.0169858932495115,0,9.0014e-05,-3.3967653905846126e-05,-2.5798463337678395e-09,0.0008213281540582181,3.655338046531105e-08,5.4531579503570697e-05,2.459534253278435e-09,-0.41549098884714436,83.93357262246036,93.90354370161548,9.623378965664022,1387.103181389806,90.41549098884715,6.066427377539638,-3.903543701615478,9.623378965664022,0.0008238370174516933,3.672675508795582e-08,0
2024-02-06 10:00:45.504800,0.1986113786697387,10.107644081115724,1.7540016174316406,0,7.5003e-05,-3.493749242597813e-05,-2.0626787579743327e-09,0.0006736433034665586,2.5332872190858842e-08,3.3733932742153314e-05,1.7970574511181536e-09,1.1256955059282985,80.1553750658132,83.53972717687932,10.26062556690398,8496.28149860617,88.87430449407171,9.8446249341868,6.460272823120677,10.26062556690398,0.0006753916692561475,2.548015840962546e-08,0
2024-02-06 10:00:45.564253,0.9739136099815368,10.10285758972168,2.21343994140625,0,5.9453e-05,-4.4053874212741795e-05,-1.4485208823582854e-09,0.0005165066529757978,1.6079456279519524e-08,2.8870746221887193e-06,1.5123291188603942e-09,5.506288143910049,77.64229671799306,66.25050473155176,10.388241216496501,2146.496385254246,84.49371185608996,12.357703282006948,23.749495268448243,10.388241216496501,0.0005183900091642271,1.6215247958491444e-08,0
2024-02-06 10:00:45.639742,0.2584340870380401,11.30409812927246,0.0957163274288177,0,7.5489e-05,-3.4172910378038834e-05,-2.0757432412071643e-09,0.0006881476239306928,2.573837427175576e-08,2.1401889585708286e-05,1.7070780338793122e-09,1.3096669324035068,89.51486527542323,20.323136614467934,11.30745702220003,12176.817890070452,88.6903330675965,0.48513472457677387,69.67686338553207,11.30745702220003,0.0006893279197907208,2.5878306273211725e-08,0
2024-02-06 10:00:45.714765,0.6628355383872986,8.612075805664062,0.2488624453544616,0,7.5023e-05,-3.438756620076293e-05,-2.059768650164304e-09,0.0006835071554038526,2.5418778708170815e-08,2.1321602731649785e-05,1.697123460169368e-09,4.401140349807743,88.34478919306873,20.578710063095286,8.641130316698233,-35540.123768734884,85.59885965019225,1.6552108069312672,69.42128993690473,8.641130316698233,0.000684703692804796,2.555850515867888e-08,0
2024-02-06 10:00:45.789553,1.1438100337982178,7.714735507965088,-0.7298369407653809,0,7.478799999999999e-05,-3.459984705549474e-05,-2.051662629106693e-09,0.0006815887550745011,2.52583799386896e-08,2.137811723486057e-05,1.6921062430733028e-09,8.433409590409894,95.40426733964736,-32.54094209700534,7.833141599089129,-10803.721420670478,81.5665904095901,-5.404267339647359,122.54094209700534,7.833141599089129,0.0006828011455444252,2.5397997956703553e-08,0
2024-02-06 10:00:45.879051,1.5003533363342283,10.98823356628418,-0.5264397859573364,0,8.949799999999999e-05,-1.5152025468170599e-05,-2.4175876515182518e-09,0.0008191490926156044,3.6296306808450326e-08,1.2138201909814985e-05,1.9386187703823913e-09,7.775188199599397,92.74290965822505,-19.33480917783041,11.102678770877882,36531.957940833905,82.2248118004006,-2.742909658225048,109.33480917783041,11.102678770877882,0.0008193791282149915,3.64283524294307e-08,0
2024-02-06 10:00:45.939126,1.9526129961013796,9.65299129486084,0.2512553632259369,0,6.0075e-05,-6.595033966779703e-05,-1.2244502068204645e-09,0.0005154857130708697,1.666182686459377e-08,1.6186577544827965e-05,1.5219187774354117e-09,11.435520940149969,88.50899874197323,7.332327592168016,9.851703797250147,-20823.553451980595,78.56447905985003,1.49100125802678,82.66767240783199,9.851703797250147,0.000519939393559572,1.6775934833558214e-08,0
2024-02-06 10:00:46.029089,1.6415349245071411,9.04519271850586,0.1220383122563362,0,8.9963e-05,-1.2239393142223294e-05,-2.392917573933408e-09,0.0007949113749666217,3.624440094822604e-08,2.1765078231235054e-05,2.0890683213528974e-09,10.286170874092559,89.22700862066648,4.251777095434894,9.193750136530058,-7313.602933651493,79.71382912590744,0.7729913793335251,85.74822290456511,9.193750136530058,0.0007953034737923799,3.638333218745485e-08,0
2024-02-06 10:00:46.104190,1.2443121671676636,9.708027839660645,0.1411815732717514,0,7.5101e-05,-3.368412288045878e-05,-2.0516599263688577e-09,0.0006555561929988864,2.5465976450674345e-08,1.9809091261875833e-05,1.7801306678495902e-09,7.303978182275276,89.16681964259017,6.4731844746567315,9.788465126955252,7918.869128576105,82.69602181772473,0.8331803574098218,83.52681552534327,9.788465126955252,0.0006567198355539752,2.561043010639194e-08,0
2024-02-06 10:00:46.179064,1.6152129173278809,9.657776832580566,0.3445787727832794,0,7.4874e-05,-3.400867897754901e-05,-2.043976793357974e-09,0.000653358174168587,2.531741467000084e-08,1.9753957462598587e-05,1.7756402618193625e-09,9.494548307589184,87.9566168632283,12.042575722609277,9.797974313442834,127.00251739699034,80.50545169241082,2.0433831367717006,77.95742427739073,9.797974313442834,0.0006545408412269946,2.54617796912147e-08,0
2024-02-06 10:00:46.254098,1.821003079414368,9.349091529846191,0.2033971846103668,0,7.5034e-05,-3.3733781697809635e-05,-2.0493961902120024e-09,0.0006548787236375812,2.542207362182533e-08,1.979779553919008e-05,1.7788044020595055e-09,11.021988606068126,88.75367974685072,6.373243647538565,9.52695833219532,-3611.909017878744,78.97801139393187,1.2463202531492814,83.62675635246144,9.52695833219532,0.0006560457784400677,2.5566501463413975e-08,0
2024-02-06 10:00:46.329223,1.7516087293624878,9.334734916687012,0.4522596299648285,0,7.5125e-05,-3.3571227860510294e-05,-2.052458568146906e-09,0.0006557288377408984,2.548170626586805e-08,1.9827627924253248e-05,1.780607358827092e-09,10.62763571298203,87.22623922593263,14.477395678829623,9.508414582804562,-246.83859421974756,79.37236428701797,2.773760774067369,75.52260432117038,9.508414582804562,0.0006568869543644435,2.5626168323810096e-08,0
2024-02-06 10:00:46.404019,1.7252867221832275,9.174409866333008,0.4211518168449402,0,7.479600000000001e-05,-3.414317716228955e-05,-2.0413195485206557e-09,0.0006526840834240917,2.5266472340336416e-08,1.9683951741253046e-05,1.7741077039721164e-09,10.650329599600333,87.3716790808932,13.717936719151488,9.344719338858818,-2188.5561252706584,79.34967040039966,2.6283209191067995,76.28206328084852,9.344719338858818,0.0006538728678099697,2.541080612986237e-08,0
2024-02-06 10:00:46.479298,1.5266753435134888,9.856388092041016,0.4450809061527252,0,7.5279e-05,-3.335782832342381e-05,-2.057621041345455e-09,0.0006572800211310389,2.5582828671586473e-08,1.989314694385698e-05,1.7836655733045702e-09,8.80468829914711,87.41447424293575,16.253307648809244,9.983847997562949,8490.132157761536,81.1953117008529,2.585525757064247,73.74669235119076,9.983847997562949,0.0006584265397018894,2.57273471245468e-08,0
2024-02-06 10:00:46.554206,0.7346227765083313,10.466580390930176,0.8470894694328308,0,7.490800000000001e-05,-3.377729912468784e-05,-2.045167475203831e-09,0.0006535101104774479,2.5339677102173108e-08,1.9653449339185868e-05,1.776329679694066e-09,4.014861552686981,85.37297808825784,49.06713671974862,10.526468366588714,7243.82401113053,85.98513844731302,4.627021911742161,40.93286328025138,10.526468366588714,0.0006546774996159045,2.548405958192277e-08,0
2024-02-06 10:00:46.629373,0.7537660598754883,10.189002990722656,0.1340028494596481,0,7.5167e-05,-3.3584552770376146e-05,-2.0538908350242413e-09,0.0006561850085253718,2.5509282620083963e-08,1.9780500794482435e-05,1.7814363762363758e-09,4.230942512213966,89.24650575726771,10.080597572751474,10.217724892638222,-4107.433766819121,85.76905748778604,0.7534942427322969,79.91940242724853,10.217724892638222,0.0006573415822918165,2.5653761574398644e-08,0
2024-02-06 10:00:46.704058,0.3158638775348663,9.899460792541504,0.2967205941677093,0,7.468500000000001e-05,-3.384233358529203e-05,-2.0376409554125255e-09,0.0006513436887536052,2.519416820403974e-08,1.9676696444568244e-05,1.7719271917017649e-09,1.827526736917611,88.28316414145799,43.210087651298664,9.908942278729908,-4134.466277141506,88.17247326308238,1.7168358585420143,46.789912348701336,9.908942278729908,0.0006525190240940284,2.533846518890427e-08,0
2024-02-06 10:00:46.794274,-0.3350071310997009,9.021263122558594,-0.1770751923322677,0,9.0216e-05,-3.3990990520849754e-05,-2.5644006337587696e-09,0.000798272570316315,3.6451163263847205e-08,2.0605802812521366e-05,2.0847409396826944e-09,-2.12671756675819,91.12449424810411,-152.14035004463864,9.029217780520236,-9751.313494387605,92.12671756675819,-1.1244942481041145,-117.85964995536136,9.029217780520236,0.0007992615861315699,3.660067757137367e-08,0
2024-02-06 10:00:46.869232,-2.036364793777466,8.856152534484863,-0.3589362204074859,0,7.4958e-05,-1.589979410596184e-05,-2.1837838378408235e-09,0.0006618857662687304,2.531161531403989e-08,2.469503388031295e-05,1.7391408565530612e-09,-12.949383185644985,92.32090412958374,-170.00354297013783,9.09434189470131,868.8080549250825,102.94938318564498,-2.320904129583731,-99.99645702986219,9.09434189470131,0.0006625371051798579,2.5465101464068145e-08,0
2024-02-06 10:00:46.944181,-0.8566610813140869,11.103093147277832,0.6030128598213196,0,7.4949e-05,-1.588677548952394e-05,-2.183640798277644e-09,0.0006617959496631625,2.53056587463182e-08,2.4693935535435587e-05,1.7389186061906904e-09,-4.411925066145266,86.89130032657032,144.85787751129118,11.152406473693292,27459.53353603092,94.41192506614527,3.108699673429687,-54.857877511291186,11.152406473693292,0.0006624470236013216,2.5459153356700016e-08,0
2024-02-06 10:00:47.019702,-0.6843717098236084,8.930333137512207,0.7681235074996948,0,7.552100000000001e-05,-1.6327510867789327e-05,-2.192854084175836e-09,0.0006675255095806126,2.5685844683661927e-08,2.5086080536489404e-05,1.753155690787261e-09,-4.382268619118304,85.08392561291178,131.69994297672986,8.989395324877483,-28641.187865836102,94.3822686191183,4.916074387088227,-41.69994297672983,8.989395324877483,0.0006681962323963505,2.583882313542608e-08,0
2024-02-06 10:00:47.094594,-0.8949476480484009,8.904010772705078,1.0050214529037476,0,7.4892e-05,-1.583081492973857e-05,-2.1827402907125132e-09,0.0006619166084208492,2.526773513755046e-08,2.4528426446442513e-05,1.7375519283411288e-09,-5.739558405108848,83.56011598802326,131.68430260328424,9.00513227298701,210.12855991998217,95.73955840510885,6.43988401197675,-41.684302603284245,9.00513227298701,0.0006625600764524211,2.5421287946557388e-08,0
2024-02-06 10:00:47.169201,-0.6269419193267822,9.542917251586914,0.8781972527503967,0,7.460700000000001e-05,-1.5613945666387616e-05,-2.1782594123275654e-09,0.0006592879211773877,2.507946349208272e-08,2.4260067780886808e-05,1.7305995679137346e-09,-3.758764603546516,84.74210341096538,125.52290752324463,9.603726165170611,8023.293956111368,93.75876460354651,5.257896589034608,-35.52290752324462,9.603726165170611,0.0006599188656178936,2.5233297009756113e-08,0
2024-02-06 10:00:47.244801,0.0526439771056175,9.667348861694336,1.4524952173233032,0,7.56e-05,-1.5899084594700417e-05,-2.1939056318521952e-09,0.0006688258183026317,2.5738871963734538e-08,2.5417256592278377e-05,1.7552643594650108e-09,0.3120036251680473,81.45536496267219,87.92429058158501,9.77599855556328,2278.73532265435,89.68799637483195,8.544635037327819,2.0757094184149856,9.77599855556328,0.0006694974182562709,2.5891769056180784e-08,0
2024-02-06 10:00:47.319812,-0.0909305065870285,9.485487937927246,1.7875022888183594,0,7.501099999999999e-05,-1.5887809211768142e-05,-2.1845443916261902e-09,0.000663185307865143,2.5346594687078125e-08,2.4463077326719652e-05,1.7405746011258657e-09,-0.5492363394914874,79.32799254927222,92.91213455400639,9.652870775583931,-1641.462985153496,90.54923633949149,10.672007450727781,-2.9121345540063763,9.652870775583931,0.0006638264963091088,2.550003326217609e-08,0
2024-02-06 10:00:47.394757,-0.6652284264564514,12.033934593200684,1.2849916219711304,0,7.4945e-05,-1.586285596697771e-05,-2.183496619675292e-09,0.0006624751669216159,2.5302847891410164e-08,2.4361685027663605e-05,1.7389633839681712e-09,-3.164054793695763,83.90501338615617,117.37018995780329,12.12061525341572,32927.4064691679,93.16405479369575,6.094986613843842,-27.370189957803287,12.12061525341572,0.0006631127119009551,2.5456350142052086e-08,0
2024-02-06 10:00:47.469717,0.2560411691665649,9.090658187866213,1.05048668384552,0,7.496e-05,-1.5865924871407383e-05,-2.1837345855315797e-09,0.000662633601367474,2.5312786207172335e-08,2.4379201114957236e-05,1.739328940614241e-09,1.613326640970333,83.40832397127754,76.30205318662499,9.154733510150033,-39566.1918792114,88.38667335902967,6.591676028722471,13.697946813375012,9.154733510150033,0.0006632717110508009,2.5466273922066397e-08,0
2024-02-06 10:00:47.559829,0.3948298394680023,8.135887145996094,-0.0957163274288177,0,9.0112e-05,-1.0934926109991904e-05,-2.3867778325666607e-09,0.0007931419088168148,3.63417414723285e-08,3.1612541335170166e-05,2.163522381416406e-09,2.778350898196542,90.67403695476729,-13.626995231228905,8.146024298383553,-11193.949881996623,87.22164910180346,-0.6740369547672821,103.62699523122892,8.146024298383553,0.0007938469707067474,3.6484239210356064e-08,0
2024-02-06 10:00:47.649746,0.5072965025901794,9.779815673828123,0.2177546322345733,0,8.9917e-05,-1.1022883428342574e-05,-2.3846369461366732e-09,0.000791395127791882,3.618724911125916e-08,3.1600642600451606e-05,2.157359095982683e-09,2.969373090231782,88.72447900390549,23.231200649611242,9.795384700738103,18343.14314706395,87.03062690976822,1.2755209960945173,66.76879935038876,9.795384700738103,0.0007921024888640141,3.6329845717732225e-08,0
2024-02-06 10:00:47.709787,0.8423036336898804,10.756121635437012,0.5790837407112122,0,6.0040999999999997e-05,-3.118321026409411e-05,-1.754162318559054e-09,0.0004846292962660793,1.7125996264681334e-08,1.969747098538746e-05,1.391067875237419e-09,4.47765063938669,86.91830803575002,34.508522643522426,10.804580789017196,16808.44903114694,85.5223493606133,3.0816919642499867,55.491477356477574,10.804580789017196,0.00048603079919378584,1.727170817641524e-08,0
2024-02-06 10:00:47.784738,0.8135887384414673,9.076300621032717,0.0239290818572044,0,7.495100000000001e-05,-1.8838532629854903e-05,-2.127074411833444e-09,0.0006324800041880613,2.5454046099566958e-08,2.419293157763501e-05,1.7182708263447518e-09,5.122235210795423,89.84894371851426,1.6846844104096859,9.112723643326191,-22572.842866552877,84.87776478920458,0.15105628148574063,88.31531558959031,9.112723643326191,0.000633222823299742,2.5600495366789757e-08,0
2024-02-06 10:00:47.859808,1.2706341743469238,9.32277011871338,0.105287954211235,0,7.507e-05,-1.8714521366544003e-05,-2.1293088185462293e-09,0.0006335747488970761,2.5529376357375516e-08,2.420061999128108e-05,1.721150242663102e-09,7.761228095779534,89.35294994124752,4.736851273340092,9.409550437969678,3954.000195064425,82.23877190422047,0.6470500587524807,85.2631487266599,9.409550437969678,0.000634312908396112,2.5675774017526368e-08,0
2024-02-06 10:00:47.933980,1.318492412567139,9.801351547241213,0.2177546322345733,0,7.417200000000001e-05,-1.9877039204068404e-05,-2.1119812078500246e-09,0.0006249880182690626,2.4964281674917925e-08,2.4055573869966917e-05,1.699483211619402e-09,7.6615201751435835,88.72728070053577,9.377988806842387,9.89203373803711,6504.925040007448,82.33847982485642,1.2727192994642371,80.62201119315762,9.89203373803711,0.0006257665621472784,2.511103477265584e-08,0
2024-02-06 10:00:48.008971,1.770751953125,9.593168258666992,0.4498667120933532,0,7.4991e-05,-1.8611993636317484e-05,-2.1277424667981625e-09,0.000632930074129582,2.5479399133755165e-08,2.43289648104692e-05,1.7192966802090403e-09,10.458208168582306,87.31511071953913,14.254650708433795,9.76559367254452,-1686.06986828539,79.5417918314177,2.6848892804608764,75.74534929156621,9.76559367254452,0.0006336708795372765,2.5625827777786957e-08,0
2024-02-06 10:00:48.084088,1.4142086505889893,9.63624095916748,0.6125844717025757,0,7.5117e-05,-1.8411341118283496e-05,-2.1300749368877023e-09,0.0006341415269103056,2.5559224644620683e-08,2.4395899235048345e-05,1.722366346643908e-09,8.349091163943044,86.362550648891,23.420530716462117,9.758708196554954,-91.66335169890249,81.65090883605697,3.637449351108993,66.57946928353788,9.758708196554954,0.0006348776366618959,2.5705597240737162e-08,0
2024-02-06 10:00:48.159791,1.177310824394226,9.447200775146484,0.600619912147522,0,7.5703e-05,-1.7652025912113417e-05,-2.1406415034276084e-09,0.0006397329753384596,2.593246987377957e-08,2.475136811951642e-05,1.7367664959787954e-09,7.103581875219006,86.36223114451198,27.02897289445231,9.539203716350345,-2899.547973060633,82.89641812478101,3.6377688554880225,62.97102710554769,9.539203716350345,0.0006404549195517104,2.6078567783953096e-08,0
2024-02-06 10:00:48.234816,0.9978426694869996,9.696063995361328,0.6508709788322449,0,7.5025e-05,-1.8389402946539162e-05,-2.128423459044525e-09,0.0006332434085812574,2.5500930879630777e-08,2.4327112707474273e-05,1.7201288909784452e-09,5.8757462282219555,86.15964815690259,33.11553223983586,9.76898050086483,3062.6695703363507,84.12425377177804,3.84035184309741,56.88446776016414,9.76898050086483,0.0006339772811899664,2.564734889906355e-08,0
2024-02-06 10:00:48.324753,0.8351249098777771,9.203125,0.7394086122512817,0,8.9937e-05,-4.7227966747953795e-06,-2.3007480194211955e-09,0.0007741557617306715,3.5994499093476526e-08,3.4693037338593055e-05,2.1601831297219233e-09,5.18502589215299,85.40653979404523,41.52125579912192,9.270472937050986,-5542.85292831475,84.81497410784702,4.593460205954772,48.47874420087808,9.270472937050986,0.000774947130499239,3.613258636733729e-08,0
2024-02-06 10:00:48.399583,0.1100737750530242,10.873373985290527,0.569512128829956,0,7.483e-05,-1.1862354941420188e-05,-2.175472076688111e-09,0.0006225079266452794,2.5444799923328778e-08,2.480610452083592e-05,1.7107563616867264e-09,0.579999117881482,87.0017722553198,79.06090859821427,10.88883474596027,21627.179057988567,89.42000088211852,2.998227744680195,10.93909140178574,10.88883474596027,0.0006231148987325367,2.5594866853018273e-08,0
2024-02-06 10:00:48.474814,0.6077986359596252,10.177038192749023,0.284756064414978,0,7.523100000000001e-05,-1.1718421523012147e-05,-2.18020002236923e-09,0.0006267285342869764,2.5695271833745703e-08,2.4977385293581536e-05,1.7207379513945175e-09,3.4177902050056157,88.3972679823335,25.103275977071128,10.199147590596374,-9167.592553121678,86.58220979499438,1.6027320176665014,64.89672402292886,10.199147590596374,0.0006273355137951277,2.5844945460282815e-08,0
2024-02-06 10:00:48.549760,-0.0430723465979099,9.0284423828125,0.0909305065870285,0,7.4946e-05,-1.1798895019246196e-05,-2.1768488047619576e-09,0.0006239917533049587,2.5517044192763844e-08,2.4923849957213747e-05,1.7136270253712789e-09,-0.2733411641321826,89.42296158214637,115.34617664826834,9.029003014942163,-15613.169157182652,90.27334116413218,0.5770384178536349,-25.34617664826832,9.029003014942163,0.0006246007688219423,2.566699695399404e-08,0
2024-02-06 10:00:48.624737,-0.0622156113386154,9.641026496887209,0.0311078056693077,0,7.4977e-05,-1.1800526982594212e-05,-2.177214595802986e-09,0.000624281130072594,2.5536392422456197e-08,2.492574155105372e-05,1.714399694039657e-09,-0.3697368189234747,89.81512966590773,153.434948822922,9.641277425297389,8166.163094752077,90.36973681892349,0.18487033409226766,-63.43494882292201,9.641277425297389,0.0006248899698296108,2.5686314793305386e-08,0
2024-02-06 10:00:48.699761,-1.1198810338974,9.167230606079102,-0.3493645787239074,0,7.502399999999999e-05,-1.1828306253757256e-05,-2.17776987338404e-09,0.0006247231241145137,2.556574402242959e-08,2.4918262516886936e-05,1.7155710281352534e-09,-6.964818895442304,92.18249483649481,-162.67386411242535,9.241986048679333,-5322.181923358602,96.9648188954423,-2.1824948364948136,-107.32613588757465,9.241986048679333,0.000625331760299356,2.5715620408506393e-08,0
2024-02-06 10:00:48.774769,-0.619763195514679,9.83485221862793,0.3350071310997009,0,7.500800000000001e-05,-1.1814389099921976e-05,-2.177580731821211e-09,0.0006245711074519162,2.555574966857707e-08,2.491837737646793e-05,1.715172335016107e-09,-3.6058418980524873,88.04907327236705,151.60698069386964,9.860053466318169,8240.019966388056,93.60584189805249,1.9509267276329403,-61.60698069386963,9.860053466318169,0.0006251796330532476,2.5705641697988805e-08,0
2024-02-06 10:00:48.849437,-0.7513731122016907,9.590775489807127,0.6149773597717285,0,7.4668e-05,-1.1581295927610184e-05,-2.1736034653665304e-09,0.000621268750741482,2.5343956892684186e-08,2.475688001301978e-05,1.7067275412598938e-09,-4.479591299215774,86.33111686697941,140.7006578628789,9.639799437885449,-2949.7780633299394,94.47959129921578,3.668883133020582,-50.70065786287889,9.639799437885449,0.0006218696729791731,2.549418800242484e-08,0
2024-02-06 10:00:48.924772,-0.7705163955688477,9.83485221862793,0.4020085632801056,0,7.5335e-05,-1.2088846078451657e-05,-2.181497457725552e-09,0.0006277471975822451,2.576050371145015e-08,2.5096044818357567e-05,1.7233534916911582e-09,-4.479715813671151,87.65928577639197,152.44718789312867,9.873177024800155,3097.8640328493548,94.47971581367116,2.340714223608027,-62.447187893128664,9.873177024800155,0.0006283649383418808,2.5910083556079554e-08,0
2024-02-06 10:00:48.999397,-0.983485221862793,10.090893745422363,0.1316099464893341,0,7.4625e-05,-1.1466175504263427e-05,-2.1731354250636884e-09,0.0006206735577650072,2.5317314343301876e-08,2.4906610247389417e-05,1.7056025491428181e-09,-5.566617092939552,89.25276520210822,172.3779641168958,10.139561180891489,3569.6369325471896,95.56661709293955,0.7472347978917802,-82.37796411689578,10.139561180891489,0.0006212789049399486,2.5467587306002664e-08,0
2024-02-06 10:00:49.089534,-1.2730270624160769,9.14808750152588,-0.1268241256475448,0,9.0137e-05,-2.8967684781130335e-05,-2.4867404454372024e-09,0.0007698910963163377,3.610253380035679e-08,2.4943729073838334e-05,2.0922417809182605e-09,-7.922273925810993,90.79426674306326,-174.31073411213478,9.23710924456694,-10012.003243113812,97.922273925811,-0.7942667430632593,-95.68926588786525,9.23710924456694,0.0007708395530646182,3.6248507562639016e-08,0
2024-02-06 10:00:49.164242,-1.0050214529037476,9.428057670593262,-0.260826975107193,0,7.470799999999999e-05,-1.1393679509695545e-05,-2.175372700615626e-09,0.0006265854243860245,2.5329415681398412e-08,2.793426349061076e-05,1.6843145072798178e-09,-6.084694327054778,91.58468208282312,-165.45134399759272,9.48506037259504,3318.9367675228978,96.08469432705479,-1.5846820828231216,-104.54865600240728,9.48506037259504,0.0006273112728642352,2.5478392031427117e-08,0
2024-02-06 10:00:49.239751,-1.2347406148910522,9.518988609313965,-1.079201579093933,0,7.550900000000001e-05,-1.2290704217847387e-05,-2.184858296298507e-09,0.0006341737164211275,2.583434971729169e-08,2.7397582054653196e-05,1.7064749114206965e-09,-7.390764876947932,96.46820739807575,-138.84553454942957,9.659213455485357,2306.3884158221836,97.39076487694794,-6.468207398075735,-131.15446545057043,9.659213455485357,0.0006348842347325981,2.5982672836210328e-08,0
2024-02-06 10:00:49.314376,-1.2490980625152588,9.63624095916748,-1.3328498601913452,0,7.4625e-05,-1.119284752243378e-05,-2.1744785664293026e-09,0.0006257071049518586,2.527748239424482e-08,2.8463708790817307e-05,1.6817842208669981e-09,-7.385784195655971,97.87497801984661,-133.1421226451869,9.807847599893082,1991.7473287467253,97.38578419565597,-7.874978019846606,-136.85787735481313,9.807847599893082,0.0006264541832736254,2.5426519057723464e-08,0
2024-02-06 10:00:49.389753,-0.8423036336898804,9.75588607788086,-1.098344802856445,0,7.5377e-05,-1.1979214560206907e-05,-2.1831912617723755e-09,0.0006329985447177887,2.5750755718520607e-08,2.7549579597511343e-05,1.7028452173010095e-09,-4.934565785012817,96.42347050981186,-127.48404030621936,9.853585635791598,606.7903458417849,94.93456578501282,-6.423470509811861,-142.51595969378067,9.853585635791598,0.0006337110055319519,2.589917809496058e-08,0
2024-02-06 10:00:49.464198,-0.9093050956726074,9.341913223266602,-1.718108057975769,0,7.4445e-05,-1.116296489232399e-05,-2.172407006147496e-09,0.0006240989702434541,2.516494827654867e-08,2.886204663065915e-05,1.676557399478682e-09,-5.5594327358783975,100.42103899128905,-117.88993751943957,9.54201622965193,-4185.229446432509,95.5594327358784,-10.421038991289038,-152.11006248056046,9.54201622965193,0.0006248657089165938,2.5314122909464497e-08,0
2024-02-06 10:00:49.539723,-0.1483602970838546,9.552489280700684,-1.6487137079238892,0,7.552499999999999e-05,-1.1734104204412477e-05,-2.1847714234597336e-09,0.0006343019475955964,2.5844484772181756e-08,2.7043962877073343e-05,1.7067466446128575e-09,-0.8897927279873551,99.79249999720838,-95.14193939948308,9.694860449039398,2023.7566287648883,90.88979272798736,-9.792499997208374,-174.85806060051692,9.694860449039398,0.000634986634389373,2.5992760596389108e-08,0
2024-02-06 10:00:49.613998,0.5934411883354187,10.689120292663574,-0.5790837407112122,0,7.427499999999999e-05,-1.2012279761444706e-05,-2.1699299334810726e-09,0.0006216509416122436,2.5059514216426855e-08,2.8436336282470285e-05,1.6720714576381426e-09,3.177698897465314,93.10097098544432,-44.298454111427525,10.721231414991529,13818.525290503278,86.8223011025347,-3.1009709854443224,134.29845411142753,10.721231414991529,0.0006224169127631623,2.520880147168772e-08,0
2024-02-06 10:00:49.689568,3.452966451644897,11.514674186706545,-0.5719050168991089,0,7.557e-05,-9.392230814557436e-06,-2.183789354079034e-09,0.0006360278985376358,2.5873861265423908e-08,2.7691071061917597e-05,1.708413953893634e-09,16.692689506311307,92.84340125927278,-9.40436266239776,12.034856637723008,17382.89298308164,73.30731049368869,-2.8434012592727758,99.40436266239776,12.034856637723008,0.0006366996914829088,2.6021996675183305e-08,0
2024-02-06 10:00:49.764475,2.3498356342315674,9.093050956726074,-0.2273262739181518,0,7.4907e-05,-1.1315859706025456e-05,-2.176924622071461e-09,0.000629196437652588,2.5454439397976854e-08,2.7956016234823515e-05,1.6899669444547646e-09,14.48944399910238,91.43209618416465,-5.525675866650315,9.39451863824512,-35248.214445617734,75.51055600089762,-1.432096184164646,95.52567586665032,9.39451863824512,0.0006299188397558175,2.5603192655385912e-08,0
2024-02-06 10:00:49.854754,1.966970443725586,9.949711799621582,-0.7561589479446411,0,9.0279e-05,2.18631118091532e-05,-2.0958584424068213e-09,0.000775559112197876,3.625139055412751e-08,2.0396948819586094e-05,2.0616078338629565e-09,11.182679432665045,94.34601471862507,-21.028168660014806,10.170423490522689,8594.522007084353,78.81732056733496,-4.346014718625067,111.02816866001481,10.170423490522689,0.0007761352766704307,3.637040234282731e-08,0
2024-02-06 10:00:49.929744,2.0770442485809326,9.518988609313965,-0.1770751923322677,0,7.499e-05,-9.051358506183973e-06,-2.1937978905313696e-09,0.0006267306319217682,2.5531586605204892e-08,2.753105720493292e-05,1.6952221918085211e-09,12.309015584675253,91.06571102749555,-4.872880178416334,9.744568362865113,-5678.825545507074,77.69098441532475,-1.0657110274955464,94.87288017841634,9.744568362865113,0.0006274003276941189,2.5681675218785434e-08,0
2024-02-06 10:00:50.004727,1.8951832056045528,9.337127685546877,-0.1603248417377472,0,7.4983e-05,-9.065261302273625e-06,-2.19373448236204e-09,0.0006266646355147362,2.5527199721768863e-08,2.7532238105052165e-05,1.695029470274936e-09,11.47361773846296,90.98371088855339,-4.835478379749505,9.528870701918972,-2876.620846673792,78.52638226153705,-0.9837108885533938,94.83547837974952,9.528870701918972,0.0006273346543132851,2.567729583735953e-08,0
2024-02-06 10:00:50.079712,1.543425679206848,9.868352890014648,-0.1268241256475448,0,7.4985e-05,-9.061822693388806e-06,-2.1937526094460355e-09,0.0006266838409953118,2.5528453070245376e-08,2.753195095608478e-05,1.6950845344639972e-09,8.889135141036865,90.73630191456873,-4.697471824635248,9.989125885078327,6137.9633681316855,81.11086485896314,-0.7363019145687191,94.69747182463524,9.989125885078327,0.0006273537770019495,2.567854704320614e-08,0
2024-02-06 10:00:50.154727,1.4812101125717163,9.51180934906006,0.0478581637144088,0,7.5015e-05,-9.016453156512131e-06,-2.194023783583784e-09,0.0006269745434288979,2.5547257946011738e-08,2.753076646665578e-05,1.6959104752253382e-09,8.851196958349252,89.71172176008993,1.8505930909130501,9.626566931896603,-4833.152745207275,81.14880304165075,0.2882782399100751,88.14940690908696,9.626566931896603,0.0006276434637894671,2.569731972916573e-08,0
2024-02-06 10:00:50.229033,1.5194966793060305,9.468737602233888,0.2680056989192962,0,7.4306e-05,-1.0080203714232786e-05,-2.1872540187231053e-09,0.0006202459395346642,2.5105118284801157e-08,2.7418792727352132e-05,1.6764308564910625e-09,9.116817095383135,88.37871768862041,10.002831861385255,9.593627520027722,-443.2941063828096,80.88318290461687,1.6212823113795962,79.99716813861475,9.593627520027722,0.0006209335119083076,2.525591939828905e-08,0
2024-02-06 10:00:50.304759,1.591283917427063,9.38498592376709,0.6748000979423523,0,7.5726e-05,-7.871549490552296e-06,-2.1999997634985025e-09,0.0006336320832381249,2.5995371680969836e-08,2.80881848431239e-05,1.7158408105661003e-09,9.623337975852422,85.8873912614495,22.979865660056085,9.542824553943735,-670.8787745818747,80.37666202414758,4.112608738550505,67.02013433994392,9.542824553943735,0.0006343031801337983,2.6144664034528463e-08,0
2024-02-06 10:00:50.379081,1.739644169807434,9.480701446533203,0.6724071502685547,0,7.4322e-05,-1.0209861007790916e-05,-2.1873066133286657e-09,0.0006203883707041741,2.5115049322302342e-08,2.714244535487984e-05,1.6770689081671015e-09,10.397718944099688,85.94316005467476,21.1325107787602,9.662411351809343,1609.0363266005788,79.60228105590032,4.056839945325239,68.86748922123981,9.662411351809343,0.0006210657647195027,2.5265838058634262e-08,0
2024-02-06 10:00:50.454776,1.873647093772888,9.325162887573242,0.8590540289878845,0,7.5695e-05,-7.72933655534302e-06,-2.199621872455757e-09,0.0006332985965695381,2.5975705425335747e-08,2.819379345443939e-05,1.7150572361096992e-09,11.360817089930457,84.73664535034135,24.631123200219808,9.55024555372778,-1481.8125118113837,78.63918291006955,5.263354649658654,65.3688767997802,9.55024555372778,0.0006339729844795313,2.6125026890871044e-08,0
2024-02-06 10:00:50.529754,1.6271774768829346,9.624276161193848,1.0935590267181396,0,7.4978e-05,-8.984382163923134e-06,-2.1936300042949004e-09,0.0006265052226705551,2.5524065756138174e-08,2.749378167396878e-05,1.6950932404261648e-09,9.596255383872336,83.51756528789562,33.90342363721892,9.821927993684133,3623.4954247426235,80.40374461612767,6.482434712104384,56.096576362781086,9.821927993684133,0.0006271725609328625,2.567417547679276e-08,0
2024-02-06 10:00:50.619727,1.3902796506881714,9.138516426086426,0.9021263718605042,0,8.9973e-05,1.3639002650041234e-05,-2.15873198720023e-09,0.000767179260093689,3.5973215165663094e-08,4.2456432949812165e-05,2.2195449745679626e-09,8.650310318816413,84.36220216957129,32.97878250398181,9.287582676228258,-5938.951879518022,81.34968968118359,5.63779783042872,57.021217496018195,9.287582676228258,0.0007684741948888133,3.610621432720113e-08,0
2024-02-06 10:00:50.694683,0.5240468978881836,10.002355575561523,1.0313433408737185,0,7.495599999999999e-05,-7.347182399443364e-07,-2.2556238066934426e-09,0.0006234600226693153,2.553160011103707e-08,2.793897561174725e-05,1.6909810493834934e-09,2.9991182950669355,84.11303351689709,63.06393382387576,10.069032292028737,10425.444471429631,87.00088170493306,5.8869664831029125,26.936066176124246,10.069032292028737,0.0006240861527353006,2.568676429402124e-08,0
2024-02-06 10:00:50.769716,0.8016242384910583,11.32084846496582,-0.0789659693837165,0,7.5033e-05,-6.836799011937315e-07,-2.2556784150218763e-09,0.0006242809660248756,2.55796381391018e-08,2.7975642140549615e-05,1.6931337621669571e-09,4.050328221126079,90.39964702375602,-5.625911263567673,11.349469018891414,17064.981099818437,85.94967177887392,-0.39964702375600536,95.62591126356767,11.349469018891414,0.0006249078560174574,2.5734659010291482e-08,0
2024-02-06 10:00:50.844741,-0.3804723918437958,8.49003791809082,0.3158638775348663,0,7.5025e-05,-6.853645085803214e-07,-2.2556729388442374e-09,0.0006242017224793433,2.5574644208347782e-08,2.797469454891701e-05,1.6929099608201991e-09,-2.565935135837356,87.8693470781305,140.3009260653645,8.504426675602925,-37921.2574913494,92.56593513583735,2.1306529218695087,-50.300926065364486,8.504426675602925,0.0006248286513963599,2.5729679961594067e-08,0
2024-02-06 10:00:50.919725,-1.2203831672668457,9.160052299499512,-0.1100737750530242,0,7.4984e-05,-6.525469696185572e-07,-2.2556455116589345e-09,0.0006238398956298827,2.5549059355176547e-08,2.7970475851816133e-05,1.6917630848269842e-09,-7.588760992036518,90.68847414806895,-174.84609147687138,9.241645385994259,9831.680230333586,97.58876099203653,-0.6884741480689445,-95.15390852312864,9.241645385994259,0.0006244669636709596,2.570417150860507e-08,0
2024-02-06 10:00:50.994775,0.0885375961661338,10.524009704589844,0.844696581363678,0,7.505000000000001e-05,-6.898978734648858e-07,-2.2556898123387563e-09,0.0006244894696760178,2.559025422423165e-08,2.799471840442439e-05,1.6936099362374404e-09,0.4820131352868221,85.41106286656033,84.0163428092399,10.558225773433886,17542.710025844463,89.51798686471318,4.588937133439684,5.983657190760098,10.558225773433886,0.0006251170114097462,2.574524349091336e-08,0
2024-02-06 10:00:51.069685,-0.8303391337394714,8.645576477050781,1.356778860092163,0,7.491e-05,-6.379717658347489e-07,-2.2555968614640055e-09,0.0006231475986433029,2.5502919629449292e-08,2.784061512352247e-05,1.689701462890484e-09,-5.485979332997369,81.08112758297037,121.46633951971906,8.790694203118774,-23595.402086705544,95.48597933299737,8.918872417029636,-31.466339519719043,8.790694203118774,0.0006237695380133155,2.5658170586799258e-08,0
2024-02-06 10:00:51.144744,-0.4953319728374481,9.332341194152832,1.2060257196426392,0,7.5059e-05,-7.367342632747303e-07,-2.2556992770631743e-09,0.0006244869535098076,2.55958684035847e-08,2.8031544064712715e-05,1.6938639387500076e-09,-3.038232864655348,82.63643280203914,112.328655599207,9.422974263141999,8423.774098019228,93.03823286465536,7.363567197960863,-22.328655599206993,9.422974263141999,0.000625116201472964,2.575084141547935e-08,0
2024-02-06 10:00:51.219307,-0.5575475692749023,8.801115989685059,1.5769264698028564,0,7.456300000000001e-05,-4.7562013683087276e-07,-2.2553986131719482e-09,0.0006199898561282159,2.5287238154794477e-08,2.7341371921730248e-05,1.6801314555853701e-09,-3.624823422879555,79.84190349522163,109.4718623410081,8.958638236197467,-6227.432197531367,93.62482342287956,10.15809650477838,-19.471862341008098,8.958638236197467,0.0006205926188208839,2.5443153855401633e-08,0
2024-02-06 10:00:51.294725,0.382865309715271,8.250746726989746,1.679821491241455,0,7.5418e-05,-5.502968027926144e-07,-2.2558371926636374e-09,0.0006272795274395943,2.5820445816269712e-08,2.8733631675076677e-05,1.7041035196230049e-09,2.656831197674,78.49207763741751,77.16046156698951,8.428713285000981,-7026.5049616336455,87.343168802326,11.507922362582496,12.839538433010503,8.428713285000981,0.0006279375207460141,2.5974760680251054e-08,0
2024-02-06 10:00:51.384619,-0.0574297942221164,8.676684379577637,2.3282995223999023,0,8.9894e-05,1.8052054583468388e-06,-2.246754163814736e-09,0.000749800273788929,3.5787749417561764e-08,5.7744411571812826e-05,2.330031596643991e-09,-0.3792274367952963,74.97912247007704,91.41297016000425,8.983825948340638,6175.191484856124,90.3792274367953,15.020877529922954,-1.4129701600042481,8.983825948340638,0.0007520226900888528,3.59338275151447e-08,0
2024-02-06 10:00:51.459767,-0.0191432647407054,7.535267353057861,1.6534994840621948,0,7.5148e-05,2.369778622079724e-06,-2.277536321439721e-09,0.0006302695536642075,2.561249457974979e-08,2.838660749716779e-05,1.694987593048397e-09,-0.14555899143163895,77.62347660682491,90.663307902517,7.714575885325033,-16890.004564534047,90.14555899143164,12.3765233931751,-0.6633079025169941,7.714575885325033,0.0006309129302938682,2.5769362297770926e-08,0
2024-02-06 10:00:51.534736,0.2512553632259369,8.731721878051758,2.1057591438293457,0,7.496899999999999e-05,2.349004589265294e-06,-2.277958652537136e-09,0.0006288136581280231,2.549980663229438e-08,2.8050153849971473e-05,1.6899365029078277e-09,1.648231677656605,76.44133394119267,83.19574014666016,8.985561628803088,16953.484019768915,88.3517683223434,13.558666058807342,6.804259853339849,8.985561628803088,0.0006294433617108959,2.5657067628451494e-08,0
2024-02-06 10:00:51.609757,-0.368507832288742,6.69296407699585,0.2560411691665649,0,7.5021e-05,2.345956025069661e-06,-2.2778365835611632e-09,0.0006292146999628544,2.5532515369604748e-08,2.8111560658109375e-05,1.691396707485038e-09,-3.1514656889286567,87.8092026048758,145.20822499921462,6.707989507946716,-30359.12772232271,93.15146568892867,2.1907973951242035,-55.20822499921461,6.707989507946716,0.000629846728975908,2.568966141120983e-08,0
2024-02-06 10:00:51.684753,1.1055235862731934,7.042328357696533,-2.0961875915527344,0,7.4996e-05,2.336743328144855e-06,-2.2778951173030785e-09,0.0006290430088074207,2.551678714824512e-08,2.8134562488389202e-05,1.6906936309457068e-09,8.92163362970575,106.57592503716472,-62.19295860818675,7.430381788064644,9632.410796814871,81.07836637029426,-16.57592503716472,152.19295860818676,7.430381788064644,0.0006296762032229641,2.567398834400298e-08,0
2024-02-06 10:00:51.759732,0.4761887192726135,10.43547248840332,-5.585047721862793,0,7.4979e-05,2.323298773547718e-06,-2.277934727660943e-09,0.0006288944475002289,2.5506094679866506e-08,2.819985298855322e-05,1.6902147884141528e-09,2.6126934240608466,118.1556163983713,-85.1266704612257,11.845615214418787,58886.26717286364,87.38730657593916,-28.155616398371283,175.1266704612257,11.845615214418787,0.0006295306628929089,2.566333334687394e-08,0
2024-02-06 10:00:51.834703,1.9238981008529663,8.078457832336426,-6.326848983764648,0,7.4971e-05,2.313698426267211e-06,-2.2779532756497423e-09,0.0006288203917789459,2.5501063820509386e-08,2.8247500575375753e-05,1.689988998999897e-09,13.395556738819344,128.0671715547233,-73.086284848984,10.439917763788523,-18749.882629686996,76.60444326118065,-38.067171554723295,163.086284848984,10.439917763788523,0.0006294587830876542,2.565832009155075e-08,0
2024-02-06 10:00:51.909447,1.6774286031723022,7.360585212707519,-7.042328357696533,0,7.4744e-05,1.9049478453603496e-06,-2.278432092001572e-09,0.0006270680603933334,2.5358520481187835e-08,2.976490220363157e-05,1.6834045912844797e-09,12.838075414037357,133.73415836471042,-76.60223782362114,10.324067516724497,-1549.9604926686575,77.16192458596264,-43.73415836471042,166.60223782362112,10.324067516724497,0.0006277769752029318,2.5516262751638283e-08,0
2024-02-06 10:00:51.984556,2.7518444061279297,5.075357913970947,-5.458223342895508,0,7.510899999999999e-05,2.713290169557614e-06,-2.2775892635638496e-09,0.0006293376200139522,2.5587814517862157e-08,2.7483551518273604e-05,1.693852434088727e-09,28.4664213517023,137.08162068324697,-63.24436392223419,7.945068133840925,-31673.958951438213,61.533578648297706,-47.08162068324697,153.24436392223421,7.945068133840925,0.0006299432891240508,2.5744762588194264e-08,0
2024-02-06 10:00:52.059705,0.7178724408149719,3.687471389770508,-2.495803117752075,0,7.5149e-05,2.782684506496483e-06,-2.2774793440703286e-09,0.000629512876600027,2.561299152779444e-08,2.7324470989060627e-05,1.694948594538874e-09,11.016477720510837,124.09144702067184,-73.95307981640634,4.510190605089619,-45707.56136144601,78.98352227948916,-34.09144702067184,163.95307981640636,4.510190605089619,0.0006301117613988295,2.576984862011545e-08,0
2024-02-06 10:00:52.164250,-2.2373690605163574,5.295505523681641,-3.603719472885132,1,0.000104545,-1.9550876809874483e-05,-2.5239382345453786e-09,0.0007615446712739467,4.605875536644611e-08,-6.232631204812504e-05,1.1804915346527453e-09,-22.9042228455426,124.23623352104111,-121.83407614880244,6.784909218519442,21758.27264268806,112.9042228455426,-34.236233521041115,-148.1659238511976,6.784909218519442,0.0007643409529151886,4.6142960138913005e-08,0
2024-02-06 10:00:52.224026,5.845874309539795,5.4558305740356445,-17.712305068969727,1,5.9776000000000005e-05,-0.0001003254625566396,1.5943368400435528e-10,0.0005208813883945941,1.7352289233795663e-08,0.00041482223930902493,-6.709953549118867e-09,46.97660386507591,162.8798658729351,-71.73473660937296,19.433632819207276,211602.04096439763,43.0233961349241,-72.8798658729351,161.73473660937293,19.433632819207276,0.0006733944679297846,1.86051293299517e-08,1
2024-02-06 10:00:52.299749,-18.159778594970703,19.26530265808105,-16.958539962768555,1,7.572299999999999e-05,-0.00019851037837652287,-2.2233338936762137e-09,0.0007179953442208764,2.723047286130511e-08,0.00013837425644845993,-2.2990412901965643e-09,-43.30799435478823,131.35627991849267,-136.95906532650358,31.44076212172089,158566.47653306942,133.30799435478824,-41.356279918492675,-133.04093467349645,31.44076212172089,0.0007576748111780603,2.7417648635633804e-08,1
2024-02-06 10:00:52.374710,-2.254119396209717,-0.6412993669509888,-8.860939025878906,1,7.4961e-05,-0.00019073268324188323,-2.075032287199603e-09,0.000710899598966956,2.6686063887950553e-08,0.00014821147794313449,-2.4082304549997602e-09,-105.88110907515097,-175.8605071303171,-104.27264014263639,9.165618339793799,-297156.4384403502,-164.11889092484904,-94.13949286968291,-165.7273598573636,9.165618339793799,0.0007508154490033591,2.687473420797102e-08,0
2024-02-06 10:00:52.449729,-7.2050461769104,4.326377868652344,-3.972227334976196,1,7.501900000000001e-05,-0.00019100699904350373,-2.08610273798588e-09,0.0007110064662435053,2.672729916384166e-08,0.00014783931611866966,-2.399644981971967e-09,-59.01665846087635,132.55633321244392,-151.1315311612306,9.295634775232301,1733.1134171143642,149.01665846087636,-42.5563332124439,-118.8684688387694,9.295634775232301,0.0007509129990312577,2.6915769379054103e-08,0
2024-02-06 10:00:52.524701,-7.939669132232666,2.718343496322632,-1.8880045413970947,1,7.4972e-05,-0.0001906510982337388,-2.0771337726998632e-09,0.0007108409152914284,2.6693885750375583e-08,0.00014797703156776444,-2.4065966661425998e-09,-71.10008291465788,124.7816137135441,-166.62384486597776,8.601877611409257,-9253.550176373095,161.1000829146579,-34.781613713544104,-103.37615513402223,8.601877611409257,0.0007506929132352945,2.6882517156644458e-08,0
2024-02-06 10:00:52.599718,-5.642477512359619,4.977248668670654,-6.391457557678223,1,7.5017e-05,-0.00019095669653324215,-2.085719948082121e-09,0.0007110140661151408,2.6725877487457235e-08,0.00014779074367053522,-2.3999418911997376e-09,-48.58437392170778,142.09087659505272,-131.43856206499402,9.872248300102154,16934.43737676655,138.5843739217078,-52.09087659505271,-138.56143793500598,9.872248300102154,0.000750897839975029,2.691435446481183e-08,0
2024-02-06 10:00:52.674730,-4.982034683227539,7.585518836975098,0.5862624645233154,1,7.501199999999999e-05,-0.00019093013525275313,-2.084765231002654e-09,0.0007109826591963766,2.672232249564395e-08,0.00014780525665826814,-2.400680881200561e-09,-33.296201455588914,85.58056309057869,173.2885667499108,9.094199760742839,-10372.320953438313,123.29620145558891,4.419436909421316,-83.28856674991081,9.094199760742839,0.0007508642035157903,2.6910816307257535e-08,0
2024-02-06 10:00:52.749729,-8.092815399169922,7.384514331817627,-2.172760486602783,1,7.499899999999999e-05,-0.00019084514872721753,-2.0822836916567837e-09,0.0007108853539807794,2.6713080353558297e-08,0.00014781556889541166,-2.4026024165666603e-09,-47.62024308876246,106.39557090621915,-164.9716187211208,11.168957029821724,27663.799105039874,137.62024308876246,-16.39557090621915,-105.02838127887922,11.168957029821724,0.0007507524889768704,2.6901618273261814e-08,0
2024-02-06 10:00:52.824719,-6.2646331787109375,6.29334831237793,-2.467088222503662,1,7.499e-05,-0.0001907805402086171,-2.080566376056574e-09,0.0007108238035988807,2.6706682662349192e-08,0.00014783644821460263,-2.403932850643654e-09,-44.86898745622377,111.40593452032124,-158.5048805501652,9.216202370951514,-26040.200811711034,134.86898745622378,-21.405934520321235,-111.49511944983479,9.216202370951514,0.000750681896481979,2.689525141029553e-08,0
2024-02-06 10:00:52.914717,-6.298134326934815,6.403421878814697,-2.9600272178649902,1,8.9998e-05,-0.00028505154757098284,-5.651210362754692e-09,0.0008061003671135901,3.8089681639375574e-08,0.00010711137395007625,-4.908043931199035e-10,-44.52506652772127,114.8090754406125,-154.8271901746661,9.456853011900892,2673.9554317804573,134.5250665277213,-24.809075440612517,-115.17280982533391,9.456853011900892,0.000861698922514558,3.8509750906820945e-08,0
2024-02-06 10:00:52.989712,-7.542446136474609,7.042328357696533,-3.0102784633636475,1,7.499500000000001e-05,-0.0001812264332247171,-2.1534260898157507e-09,0.0007052370717144012,2.67523838420074e-08,0.00015189762201781287,-2.433760376373023e-09,-46.96392579820221,113.14452785689602,-158.2424799117335,10.749170146863827,17232.04393576819,136.9639257982022,-23.144527856896012,-111.7575200882665,10.749170146863827,0.0007438247340565671,2.6949034764236012e-08,0
2024-02-06 10:00:53.064005,-7.394085884094238,5.0131425857543945,-2.931312322616577,1,7.4293e-05,-0.00017598371048549737,-2.028045329373464e-09,0.0007010056014132498,2.625879266373959e-08,0.00015398312038369195,-2.541124516955952e-09,-55.862982240240804,120.31591524037569,-158.37463872833837,9.401951743079184,-18133.853846050675,145.8629822402408,-30.315915240375695,-111.62536127166163,9.401951743079184,0.0007389789719146911,2.6459298437901417e-08,0
2024-02-06 10:00:53.139712,-7.982741355895996,4.474738121032715,-3.4098939895629883,1,7.5707e-05,-0.00018685512734417043,-2.2845723877190385e-09,0.0007077135330729483,2.725475709182133e-08,0.000149499887520981,-2.326562030367349e-09,-60.72712171780633,127.30856342587784,-156.86984847702755,9.766003165421022,4808.689055725862,150.72712171780634,-37.308563425877836,-113.13015152297245,9.766003165421022,0.0007470766358802738,2.7449115577920912e-08,0
2024-02-06 10:00:53.214561,-8.346463203430176,4.113409042358398,-3.5534684658050537,1,7.4849e-05,-0.00017984989858821953,-2.127255931594044e-09,0.0007040292179398536,2.664911945163684e-08,0.0001524871700143339,-2.4561144780499984e-09,-63.7644198534787,130.82289240382795,-156.93834253215948,9.9604578254938,2597.9593591467788,153.76441985347873,-40.82289240382794,-113.06165746784052,9.9604578254938,0.0007424657990467811,2.6846476187302457e-08,0
2024-02-06 10:00:53.289675,-8.05692195892334,3.843010425567627,-3.988977909088135,1,7.5114e-05,-0.00018202334712223137,-2.1752041366506782e-09,0.0007050834435193537,2.6835826879280183e-08,0.00015148779586966055,-2.4158377950703695e-09,-64.4996768343132,136.06771770605485,-153.66001191892295,9.777252443421707,-2439.0311003553566,154.4996768343132,-46.06771770605486,-116.33998808107707,9.777252443421707,0.0007437901004451041,2.7032006762038394e-08,0
2024-02-06 10:00:53.364671,-8.968619346618652,4.252197742462158,-3.8669395446777344,1,7.4996e-05,-0.0001810188401852044,-2.1537846475995395e-09,0.00070460582623744,2.675265521236453e-08,0.00015195129499943273,-2.4337407014316463e-09,-64.63345553527896,132.2833167401641,-156.6760674668685,10.652255163472901,11667.32519135946,154.63345553527896,-42.28331674016411,-113.32393253313154,10.652255163472901,0.0007431866433956862,2.6949331031060782e-08,0
2024-02-06 10:00:53.439688,-9.20073127746582,4.460380554199219,-3.512789011001587,1,7.5017e-05,-0.00018120961836675731,-2.1575880464143362e-09,0.000704697308309555,2.676745289527728e-08,0.00015187380784959808,-2.4305505378517304e-09,-64.1365679873897,128.22232950239413,-159.10341649000515,10.811481737681929,2122.539880414137,154.1365679873897,-38.22232950239413,-110.89658350999484,10.811481737681929,0.0007433040263836154,2.696403709751137e-08,0
2024-02-06 10:00:53.514725,-8.851366996765137,4.065550804138184,-4.094265937805176,1,7.503700000000001e-05,-0.00018139013934949965,-2.1612140439914993e-09,0.0007047825676231383,2.6781547694036608e-08,0.00015179773730011,-2.427513822400233e-09,-65.33005066320517,135.20162820167894,-155.17674609483365,10.56590813048852,-3272.7002304650864,155.33005066320516,-45.20162820167892,-114.82325390516637,10.56590813048852,0.0007434133462133482,2.697804600763087e-08,0
2024-02-06 10:00:53.589690,-8.391928672790527,3.9315478801727295,-3.725757837295532,1,7.4965e-05,-0.00018076938070539557,-2.1481763012695216e-09,0.000704494672070503,2.673081371340763e-08,0.00015207925815601366,-2.438453394236655e-09,-64.89730565400305,133.46054684667183,-156.0602531978819,9.988133311358212,-7707.260976859979,154.89730565400305,-43.460546846671825,-113.93974680211811,9.988133311358212,0.0007430467096607193,2.6927627414202345e-08,0
2024-02-06 10:00:53.679681,-8.566611289978027,3.642006158828736,-3.682685613632202,1,8.9991e-05,-0.00030817889144567573,-5.821644669940521e-09,0.000761394783565521,3.774404119360108e-08,9.641962250919359e-05,-5.714813037989525e-10,-66.96773092322795,135.31820275618426,-156.73769863574842,10.010654882842532,250.26470963008018,156.96773092322795,-45.31820275618424,-113.2623013642516,10.010654882842532,0.0008270386866273473,3.819464338317474e-08,0
2024-02-06 10:00:53.754682,-8.542681694030762,3.84540319442749,-3.632434368133545,1,7.5001e-05,-0.00017994474053052982,-2.1631580482788597e-09,0.0007052766504628657,2.675133879555832e-08,0.0001512464467725279,-2.4277384930654555e-09,-65.7655818741639,133.3686570746935,-156.96431356244892,10.047841344887924,495.81288310012314,155.76558187416393,-43.3686570746935,-113.0356864375511,10.047841344887924,0.0007434182880411499,2.6948233602358596e-08,0
2024-02-06 10:00:53.829730,-8.722149848937988,4.07990837097168,-3.761651515960693,1,7.5048e-05,-0.00018035046407178967,-2.1716249855870155e-09,0.0007054628952846525,2.6784491174883393e-08,0.00015107268575425165,-2.4206339934510748e-09,-64.93149569720043,132.6758741201568,-156.6706360513733,10.337870788048336,3864.5859071582454,154.93149569720046,-42.67587412015681,-113.3293639486267,10.337870788048336,0.0007436579475103573,2.6981185880270035e-08,0
2024-02-06 10:00:53.904695,-8.717364311218262,4.008121013641357,-3.890868663787842,1,7.4965e-05,-0.00017962672423414315,-2.1566859322723183e-09,0.0007051272420651911,2.672595168418337e-08,0.00015139026534171125,-2.433186205921558e-09,-65.30769623204095,134.14956574231633,-155.9470998483892,10.353566223931802,209.37018453231957,155.30769623204097,-44.14956574231632,-114.0529001516108,10.353566223931802,0.0007432289014844519,2.6923004712484308e-08,0
2024-02-06 10:00:53.979678,-8.253140449523926,3.74968695640564,-3.716186285018921,1,7.4983e-05,-0.00017977945877698981,-2.1599205879194183e-09,0.0007051970623369215,2.673864460292299e-08,0.000151321801847172,-2.430461797316858e-09,-65.56606018816555,134.74290560033842,-155.75913302183545,9.797168981678805,-7420.311834055677,155.56606018816558,-44.74290560033843,-114.24086697816455,9.797168981678805,0.0007433181272113886,2.6935617993574187e-08,0
2024-02-06 10:00:54.054574,-8.667113304138184,4.209125518798828,-3.6228628158569336,1,7.489600000000001e-05,-0.0001790434277387056,-2.1443117923559877e-09,0.0007048508539942501,2.6677307518562593e-08,0.00015164105048306005,-2.4436406813932213e-09,-64.09678284401217,130.71911388040138,-157.3150192427586,10.293722632861808,6629.908822674149,154.09678284401218,-40.71911388040135,-112.68498075724138,10.293722632861808,0.0007428770312672581,2.6874675612601412e-08,0
2024-02-06 10:00:54.144591,-8.502002716064453,4.357485771179199,-3.519967794418335,1,9.0017e-05,-0.0003088505294094476,-5.833034055374598e-09,0.000769618718652129,3.782503472255554e-08,9.76376796540739e-05,-5.58968842191421e-10,-62.86374288328702,128.93120433050294,-157.50964728811456,10.181449096456692,-1247.2481465180572,152.86374288328702,-38.93120433050292,-112.49035271188544,10.181449096456692,0.0008350058311799221,3.8276232628358725e-08,0
2024-02-06 10:00:54.204492,-8.174174308776855,4.833674430847168,-3.362035751342773,1,5.9901e-05,-5.774065576938717e-05,-3.129039889517035e-10,0.0006312182283300159,1.67312319748984e-08,0.00020126688904614467,-5.059873837679312e-09,-59.40269413632169,124.82033226107717,-157.6426472620337,10.073967367775232,-1794.3227772735013,149.40269413632168,-34.82033226107717,-112.35735273796631,10.073967367775232,0.0006650404466880764,1.748240130981428e-08,0
2024-02-06 10:00:54.279755,-8.356035232543945,4.926997661590576,-3.196925163269043,1,7.5263e-05,-0.00018470919525627225,-2.1751612946797933e-09,0.0007061899506720302,2.7003864197813118e-08,0.0001508875102610113,-2.354975896601047e-09,-59.47497756428671,122.97787293860026,-159.0637110722684,10.21366541768319,1856.1318298228593,149.47497756428672,-32.97787293860025,-110.93628892773161,10.21366541768319,0.0007453782757735504,2.71934903928381e-08,0
2024-02-06 10:00:54.354185,-7.650126934051514,5.128002166748047,-3.2208542823791504,1,7.442999999999999e-05,-0.00017804262871388515,-2.024075159996221e-09,0.0007020020432435271,2.641735223234728e-08,0.00015356051540012382,-2.4817784992889113e-09,-56.16542224956234,122.13257824989506,-157.1679476825283,9.756779726815257,-6138.461519117739,146.16542224956234,-32.13257824989505,-112.83205231747169,9.756779726815257,0.0007403288986979968,2.6610761051513545e-08,0
2024-02-06 10:00:54.444681,-7.547232151031494,5.862624645233154,-2.9743847846984863,1,9.0496e-05,-0.000300123014244357,-5.8651797698797815e-09,0.0007902897484241721,3.840493219481391e-08,0.00010379415997428915,-4.144483920062513e-10,-52.16024836976176,116.90082035699224,-158.49046494432963,10.008898326984069,2785.9640223746005,142.16024836976177,-26.900820356992245,-111.50953505567037,10.008898326984069,0.0008517070727593074,3.885242486757934e-08,0
2024-02-06 10:00:54.519456,-7.195474624633789,6.401029109954834,-2.964813232421875,1,7.477499999999999e-05,-0.00018423796763424,-2.057860271823068e-09,0.0006938912980815169,2.6738527078755936e-08,0.00015047922598786378,-2.413164342361755e-09,-48.343997887629705,114.85251496206813,-157.60644867895144,10.076613828235246,905.5901203768267,138.3439978876297,-24.852514962068106,-112.39355132104859,10.076613828235246,0.0007335344298157752,2.6925953676387368e-08,0
2024-02-06 10:00:54.594721,-6.106701374053955,6.9107184410095215,-2.888240098953247,1,7.5265e-05,-0.0001874970007539186,-2.1489353390781702e-09,0.0006971526762315033,2.7079332852462637e-08,0.00014904522792167683,-2.339780851153915e-09,-41.46563303341945,112.68182061210844,-154.6876115429375,9.663941323910395,-5482.927048759063,131.46563303341946,-22.68182061210843,-115.31238845706251,9.663941323910395,0.0007371509066905411,2.7265046584545346e-08,0
2024-02-06 10:00:54.669674,-6.070807933807373,7.693199634552002,-2.3976938724517822,0,7.495300000000001e-05,-0.00018559730930189228,-2.090732626709465e-09,0.0006948744650117158,2.68621766184287e-08,0.00014986983362121599,-2.3864116007546054e-09,-38.277448825997496,107.3103798901203,-158.44822737904218,10.0890517637805,5671.693459502686,128.2774488259975,-17.310379890120302,-111.55177262095782,10.0890517637805,0.0007346821424092677,2.704889380222898e-08,0
2024-02-06 10:00:54.744549,-4.924604892730713,7.7673797607421875,-1.9262909889221191,0,7.487499999999999e-05,-0.00018516848820165717,-2.0762727606068224e-09,0.0006942715024152991,2.6807999925699032e-08,0.00015003846903080962,-2.3981080245580377e-09,-32.375150498135206,103.92820857438859,-158.63672657884817,9.39651630505142,-9249.221485530272,122.3751504981352,-13.92820857438859,-111.36327342115185,9.39651630505142,0.0007340380305392856,2.699501232987618e-08,0
2024-02-06 10:00:54.819686,-4.6613850593566895,8.174174308776855,-1.56256902217865,0,7.5137e-05,-0.00018642425288538066,-2.1249514096892254e-09,0.0006963598459984062,2.699017263234123e-08,0.00014958142836935543,-2.3588578179986155e-09,-29.694279140353512,100.82205929131428,-161.4680443440496,9.538724141672915,1892.6472526384434,119.69427914035352,-10.822059291314273,-108.53195565595041,9.538724141672915,0.0007362374894664174,2.7176258893060593e-08,0
2024-02-06 10:00:54.894694,-4.70445728302002,8.834616661071777,-0.93323415517807,0,7.500800000000001e-05,-0.00018582015605429745,-2.100941645312619e-09,0.0006952627789808512,2.690041297303008e-08,0.00014974240767429492,-2.378164205423429e-09,-28.035422020704644,96.03000881366586,-168.77976725133763,10.052526839767108,6849.971977578289,118.03542202070464,-6.030008813665859,-101.22023274866235,10.052526839767108,0.0007350797581815963,2.7086931145933296e-08,0
2024-02-06 10:00:54.968967,-4.46277379989624,8.23878288269043,-0.5072965025901794,0,7.427300000000001e-05,-0.00018245119863132572,-1.9656019224656527e-09,0.0006889883046485185,2.6391700699796286e-08,0.00015027180269102476,-2.4884194277326836e-09,-28.443464897632364,93.52349357085652,-173.51485882892888,9.383562389556184,-9006.832229894086,118.44346489763237,-3.5234935708565183,-96.48514117107113,9.383562389556184,0.0007284057512873285,2.6581529075535627e-08,0
2024-02-06 10:00:55.044683,-4.441237449645996,8.233996391296387,-0.2321120798587799,0,7.5716e-05,-0.0001888754427478704,-2.2335140942207415e-09,0.0007008734148946999,2.7394485930446713e-08,0.00014973831939878784,-2.2719621246448847e-09,-28.341452092860347,91.61471063577673,-177.0082766099273,9.358267076421594,-334.0814772913268,118.34145209286035,-1.614710635776736,-92.9917233900727,9.358267076421594,0.0007411606039690289,2.7579127188842408e-08,0
2024-02-06 10:00:55.119542,-4.12298059463501,9.260554313659668,-0.5503688454627991,0,7.4859e-05,-0.00018520567531589595,-2.073220335130416e-09,0.0006933769999176262,2.6797049627699626e-08,0.00015007361247528815,-2.4004315374529277e-09,-23.99956715261427,93.40117475867956,-172.39664422790602,10.151834368528359,10600.826782441189,113.99956715261428,-3.40117475867955,-97.60335577209398,10.151834368528359,0.0007332086301629079,2.6984109821770915e-08,0
2024-02-06 10:00:55.209278,-3.8693323135375977,8.872902870178223,-0.3206496834754944,0,8.9736e-05,-0.00024465649488333787,-5.270750088157417e-09,0.0008282627211796044,3.8115766693081374e-08,0.00014359454114778065,-2.159809767277307e-10,-23.56125290549241,92.06965887550274,-175.2627510069955,9.68519251825776,-5200.1632596795025,113.56125290549241,-2.0696588755027236,-94.73724899300451,9.68519251825776,0.0008754971890485346,3.847907385678002e-08,0
2024-02-06 10:00:55.269663,-3.077279806137085,9.423272132873535,0.7130866050720215,0,6.0385e-05,-0.00014271148872105208,4.140687552288072e-10,0.0005597572049223184,1.7745880267572606e-08,0.0001378353331048908,-4.346105096322811e-09,-18.085055161933262,85.67250826156315,166.95333175121675,9.93862169527461,4196.889575504703,108.08505516193327,4.327491738436858,-76.95333175121675,9.93862169527461,0.0005938798502454529,1.827501980610042e-08,0
2024-02-06 10:00:55.359706,-2.5747690200805664,9.262947082519531,0.4714028835296631,0,9.004299999999999e-05,-0.0002265257207650336,-5.061349824240356e-09,0.0008368551496673821,3.845624487378327e-08,0.00015540012773136518,2.2835524180276127e-12,-15.53403431784344,87.08665997709338,169.62488062345943,9.625686720381243,-3475.394810183669,105.53403431784345,2.9133400229066257,-79.62488062345942,9.625686720381243,0.0008807892162100187,3.8787885184040794e-08,0
2024-02-06 10:00:55.434715,-2.7374868392944336,8.358428001403809,0.4355092644691467,0,7.5009e-05,-0.00018659349347011176,-1.9559326908347705e-09,0.0007043952731615304,2.687066544537834e-08,0.00014858286911485812,-2.2827566348750317e-09,-18.134250844488225,87.01734603226647,170.96051730725705,8.806067293031546,-10926.947797593573,108.13425084448824,2.982653967733529,-80.96051730725704,8.806067293031546,0.0007436845444488481,2.7038293437689288e-08,0
2024-02-06 10:00:55.508917,-3.371607542037964,8.298604965209961,1.1988469362258911,0,7.4202e-05,-0.00018412847388724415,-1.8063463770060784e-09,0.0006976741603595018,2.6304930428952606e-08,0.00014792340638787767,-2.402396917040385e-09,-22.111221887549082,81.77971167611624,160.42607242994166,9.03724602755911,3115.532391681679,112.11122188754908,8.220288323883768,-70.42607242994168,9.03724602755911,0.0007365689805352752,2.647609795745523e-08,0
2024-02-06 10:00:55.584101,-2.732701063156128,8.966226577758789,1.5075321197509766,0,7.5184e-05,-0.00018712568941239445,-1.9886321711862005e-09,0.0007061511926470995,2.6994208677278846e-08,0.0001492522385043623,-2.2564836753982953e-09,-16.9500239546005,80.45586905164757,151.11607078390878,9.493867875442737,6073.391251910334,106.9500239546005,9.544130948352448,-61.11607078390879,9.493867875442737,0.0007456150221217033,2.7161253259047016e-08,0
2024-02-06 10:00:55.659711,-1.821003079414368,9.483095169067385,0.9619490504264832,0,7.561e-05,-0.00018809562839476197,-2.0685543118791246e-09,0.0007100808981791735,2.729586611262484e-08,0.0001497782379936101,-2.1927901839042274e-09,-10.869975150301713,84.20782595503827,152.15464332140903,9.704148194274559,2781.1178261053074,100.86997515030171,5.792174044961726,-62.15464332140902,9.704148194274559,0.0007496855127029151,2.7461819906374772e-08,0
2024-02-06 10:00:55.734165,-1.8545037508010864,10.224896430969238,1.131845474243164,0,7.4454e-05,-0.00018597118544689745,-1.8523436934786453e-09,0.0006986896790343524,2.6481596718995423e-08,0.00014856802475835104,-2.365234323774861e-09,-10.280064806573202,83.68335686881984,148.60334155790477,10.453170110705532,10060.197120785624,100.28006480657321,6.316643131180157,-58.603341557904756,10.453170110705532,0.0007381226235431675,2.6651462912054978e-08,0
2024-02-06 10:00:55.808955,-1.9238981008529663,9.545310020446776,0.7609447836875916,0,7.479e-05,-0.00018660595695797533,-1.9149366534026622e-09,0.0007020110737181902,2.6716914445457842e-08,0.0001488860135216834,-2.3152620453438164e-09,-11.395535437062561,85.44206361898948,158.4200933916411,9.766952659490505,-9175.256735058527,101.39553543706256,4.557936381010516,-68.42009339164112,9.766952659490505,0.0007414906444571953,2.688532942351774e-08,0
2024-02-06 10:00:55.884630,-1.998078227043152,8.382356643676758,2.268476963043213,0,7.567500000000001e-05,-0.0001883414314830694,-2.0808508727878276e-09,0.000709944066217065,2.7341704594879205e-08,0.00015022653264461182,-2.182904743665228e-09,-13.407238920807593,74.85704262574116,131.37365203602272,8.910791616631686,-11313.657652577718,103.40723892080759,15.142957374258847,-41.37365203602271,8.910791616631686,0.0007497073316170349,2.7507523036950033e-08,0
2024-02-06 10:00:55.974671,-2.416837215423584,10.129179954528809,1.3543859720230105,0,9.0041e-05,-0.00022005376910630794,-5.014353598621323e-09,0.0008429124336019755,3.8495872833079365e-08,0.00017624955710719248,1.6217300902198056e-10,-13.419943450813875,82.3840792132723,150.73390294828695,10.501226120710733,17663.447807987995,103.41994345081388,7.615920786727701,-60.733902948286946,10.501226120710733,0.0008888132190731519,3.8821415060214895e-08,0
2024-02-06 10:00:56.033916,-1.6750357151031494,8.875295639038086,0.284756064414978,0,5.9245e-05,-0.0001570471097220573,7.922457335778455e-10,0.0005502815184122325,1.704347235996459e-08,0.00015101004803012033,-4.876970390882362e-09,-10.687727726427395,88.16234562548048,170.3519549216881,9.036465201804337,-24723.789668434405,100.6877277264274,1.8376543745195315,-80.3519549216881,9.036465201804337,0.0005918425287052151,1.7745209031758195e-08,0
2024-02-06 10:00:56.124625,-1.9908995628356931,10.423507690429688,1.3496001958847046,0,9.0709e-05,-0.00021471960351459116,-5.056388199061108e-09,0.0008538902923914196,3.913390328752765e-08,0.00017672174071715495,2.789061096897734e-10,-10.813307280764674,82.62258082500306,145.8672584332014,10.69741157151945,18310.711943854665,100.81330728076468,7.377419174996945,-55.867258433201414,10.69741157151945,0.000898033247277554,3.94601981337549e-08,0
2024-02-06 10:00:56.199685,-2.2995846271514893,9.961676597595217,2.6082699298858643,0,7.506e-05,-0.00018114870997003644,-1.95891658020064e-09,0.0006943864179297688,2.7019412167619506e-08,0.00014575338591806314,-2.2443005186674902e-09,-12.998636872828591,75.32759319473053,131.4010550770652,10.551121367876235,-1948.9768670825308,102.9986368728286,14.672406805269482,-41.40105507706519,10.551121367876235,0.000732278227203106,2.7183135817450887e-08,0
2024-02-06 10:00:56.273983,-1.1749178171157837,10.95473289489746,-1.847325086593628,0,7.4298e-05,-0.0001798249245387706,-1.8213856254527837e-09,0.000686417265913129,2.649332596407536e-08,0.0001454634659327688,-2.3552541392226578e-09,-6.121690108586917,99.57188249445986,-122.45678129821304,11.171356884957294,8347.94364694958,96.12169010858693,-9.57188249445986,-147.54321870178697,11.171356884957294,0.0007243378261213504,2.6660101055616446e-08,0
2024-02-06 10:00:56.349339,-2.3713719844818115,10.110036849975586,-3.3404996395111084,0,7.5356e-05,-0.00018170091184381573,-2.0126327928991722e-09,0.0006975605291081668,2.7225450217641627e-08,0.0001427191066526594,-2.202805558324966e-09,-13.20045256199599,108.28428811086475,-125.37038684595876,10.908491556499612,-3488.313186178699,103.200452561996,-18.284288110864743,-144.62961315404124,10.908491556499612,0.000734829678591082,2.7388468059388114e-08,0
2024-02-06 10:00:56.423969,-2.754237174987793,11.24188232421875,-1.560176134109497,0,7.463e-05,-0.00017984031571892825,-1.881393327293895e-09,0.0006898097824479342,2.672183479454676e-08,0.00014449805195848367,-2.307065386900812e-09,-13.76618531930891,97.90118034430304,-150.47000918310266,11.679036354815905,10324.86665303889,103.76618531930892,-7.901180344303045,-119.52999081689735,11.679036354815905,0.0007273649442601333,2.688714648932593e-08,0
2024-02-06 10:00:56.499335,-3.0318145751953125,10.45940113067627,1.3208853006362915,0,7.5366e-05,-0.00018196958276299563,-2.014539369935243e-09,0.0006977958547593357,2.7232473669039036e-08,0.00014440999293176553,-2.2007472263812e-09,-16.16502521832152,82.80239585393939,156.45845509100462,10.969763425352243,-9411.04648599716,106.16502521832153,7.197604146060616,-66.4584550910046,10.969763425352243,0.000735449678787613,2.7395424423840342e-08,0
2024-02-06 10:00:56.573958,-4.90546178817749,7.764986991882324,2.7709875106811523,0,7.4623e-05,-0.00017902088459400263,-1.880431411312118e-09,0.0006910254945718051,2.6716526537762515e-08,0.0001428898621823611,-2.3074791225560983e-09,-32.282287193515714,70.36071895443544,150.53885004109472,9.59358901161198,-18441.69242378707,122.28228719351573,19.63928104556456,-60.5388500410947,9.59358901161198,0.0007279987802074405,2.68818390821136e-08,0
2024-02-06 10:00:56.649043,-4.060765266418457,7.331870555877685,2.6896286010742188,0,7.5085e-05,-0.00018109208304361432,-1.9636175068364094e-09,0.0006945128686653378,2.7036585899670304e-08,0.00014415126450417661,-2.2411726222915067e-09,-28.979928717524096,69.85490690100976,146.48168902567943,8.802286203527647,-10538.760179587582,118.9799287175241,20.145093098990237,-56.48168902567944,8.802286203527647,0.0007320669739449971,2.7200287232790658e-08,0
2024-02-06 10:00:56.739316,-4.168446063995361,7.291191101074219,2.160795927047729,0,9.027300000000001e-05,-0.00024358471388677687,-5.188613102725801e-09,0.0008055603988882306,3.8428142293472105e-08,0.0001809853883707347,2.2791511964057053e-10,-29.757030602977952,73.49243837433313,152.59914717108143,8.672165202483654,-1441.4166034583138,119.75703060297795,16.507561625666863,-62.59914717108143,8.672165202483654,0.0008608233151465949,3.8777516312405546e-08,0
2024-02-06 10:00:56.799688,-4.249804973602295,6.310098648071289,0.4307234585285187,0,6.0372000000000004e-05,-0.00011772765174917308,2.131874197144695e-10,0.0006022143164936307,1.7381206411155584e-08,0.000142240877796677,-4.604479172695319e-09,-33.95997620868276,86.09508254435492,174.21275728319299,7.619954721635338,-17428.78289353204,123.95997620868276,3.904917455645074,-84.21275728319297,7.619954721635338,0.0006298843943872833,1.798201917569063e-08,0
2024-02-06 10:00:56.889335,-5.228504180908203,6.896361351013184,2.6585209369659424,0,8.9647e-05,-0.0002564664019983205,-5.264078042014467e-09,0.0007955238747302297,3.784059918519484e-08,0.00018745969263572718,2.2151292700899681e-10,-37.16773197239259,68.9185395701668,153.04817380475617,9.053440750665418,15990.34021250103,127.1677319723926,21.081460429833204,-63.04817380475618,9.053440750665418,0.0008566063197191832,3.8205634823986624e-08,0
2024-02-06 10:00:56.965022,-6.81500244140625,6.310098648071289,1.4836030006408691,0,7.568700000000001e-05,-0.00017240272577456563,-2.2705715301597227e-09,0.0007033427839366201,2.7378509907700235e-08,0.00015854766755123164,-2.193618447095975e-09,-47.2030001097894,76.76916901954658,167.7185234107046,9.405460174190035,4650.989252112206,137.2030001097894,13.230830980453426,-77.71852341070458,9.405460174190035,0.0007413171618518965,2.7559939436273286e-08,0
2024-02-06 10:00:57.039653,-5.766908645629883,7.214617729187012,2.4264087677001958,0,7.4631e-05,-0.00016575947672061047,-2.092021887242268e-09,0.0006962017336894276,2.6639550402393673e-08,0.00015648318133754753,-2.3599547353092522e-09,-38.63662701076806,71.41126017462223,157.18122811858854,9.549628464674038,1931.7480736423684,128.63662701076808,18.588739825377772,-67.1812281185885,9.549628464674038,0.0007325708458274702,2.682557711534054e-08,0
2024-02-06 10:00:57.115097,-5.958341121673584,5.197396278381348,2.481445789337158,0,7.544399999999999e-05,-0.00017052579075101928,-2.228721848469484e-09,0.0007012472173835041,2.7207613401004816e-08,0.0001584782242149832,-2.2319229239521495e-09,-48.90216228905022,64.47831599160257,157.38993808213317,8.286876987271974,-16737.599774694667,138.9021622890502,25.52168400839743,-67.38993808213318,8.286876987271974,0.0007388789161626568,2.7389832200925316e-08,0
2024-02-06 10:00:57.189687,-6.659463405609131,6.853288650512695,2.036364793777466,0,7.459e-05,-0.00016513798821786964,-2.0853934148497703e-09,0.0006961015749188664,2.6610945466691713e-08,0.0001565491190959933,-2.3664395995459347e-09,-44.1782127791106,73.45137393051034,162.99714774881923,9.770506627152434,19890.463063151365,134.17821277911062,16.54862606948966,-72.99714774881923,9.770506627152434,0.0007323493595592905,2.6797225988975765e-08,0
2024-02-06 10:00:57.264678,-6.302919864654541,8.30817699432373,1.268241286277771,0,7.4991e-05,-0.0001677369460635575,-2.1521348391731963e-09,0.0006991414487806561,2.6890691692943466e-08,0.00015721169261504435,-2.303530556797872e-09,-37.18542826271667,81.32081271704058,168.62315271177255,10.505286276417525,9798.237778734663,127.18542826271668,8.679187282959418,-78.62315271177256,10.505286276417525,0.0007359687254039609,2.7074845098670894e-08,0
2024-02-06 10:00:57.339681,-5.403186321258545,10.466580390930176,0.0933234170079231,0,7.5003e-05,-0.00016780718270067296,-2.1541481039457817e-09,0.0006992540973249676,2.68990820662201e-08,0.00015721986200326407,-2.3016439674701624e-09,-27.304241836010736,89.48914583050359,179.01049010836905,11.779322423730557,16986.46917207354,117.30424183601075,0.510854169496421,-89.01049010836907,11.779322423730557,0.000736093491480544,2.7083178081827266e-08,0
2024-02-06 10:00:57.414521,-4.800173759460449,13.842973709106444,-2.045936346054077,0,7.484000000000001e-05,-0.0001669756088540944,-2.1268633064340694e-09,0.0006972728686658147,2.678526511849186e-08,0.00015737899995698132,-2.327283774719921e-09,-19.124441691570873,98.40722555994193,-156.91526385431314,14.793763711920302,40278.477928778,109.12444169157088,-8.407225559941939,-113.08473614568689,14.793763711920302,0.0007340561674402781,2.6970172872271824e-08,0
2024-02-06 10:00:57.504106,-3.625255823135376,11.7539644241333,-3.462538003921509,0,8.9585e-05,-0.0002290920884517821,-5.0468724048216436e-09,0.0008859862950531247,3.845784330300974e-08,0.00011676777281178633,-3.0613669248218195e-10,-17.141245659835214,106.41416643731446,-136.31513516734927,12.778393048250198,-22496.74235273879,107.14124565983522,-16.414166437314464,-133.68486483265073,12.778393048250198,0.0009225451819724531,3.878879158035069e-08,0
2024-02-06 10:00:57.564675,-3.2064969539642334,10.78244400024414,-5.429508686065674,0,6.0568999999999996e-05,-0.00012997701916162094,1.6250220843360977e-10,0.0005590280816322567,1.7493574726058217e-08,0.0002457735861901204,-5.565886728881847e-09,-16.56149215074258,116.72757821243408,-120.56476193408078,12.490888115192025,-4746.734023315114,106.5614921507426,-26.72757821243408,-149.43523806591924,12.490888115192025,0.0006243485222472573,1.8358394775760536e-08,0
2024-02-06 10:00:57.654645,-3.175389051437378,9.758278846740724,-5.362506866455078,0,8.997e-05,-0.0002237939343840273,-5.038107694164192e-09,0.0008609869778443576,3.836850610789418e-08,8.712556156028909e-05,-6.721028073769529e-10,-18.02512752556571,118.79029466947544,-120.63174292568578,11.578582882698285,-10140.104840432808,108.02512752556571,-28.790294669475433,-149.36825707431422,11.578582882698285,0.0008938529882267208,3.870370153193611e-08,0
2024-02-06 10:00:57.729448,-2.8427748680114746,8.15981674194336,-5.242861747741699,0,7.4803e-05,-0.00017815518830088695,-1.9899265222831444e-09,0.0007251050999475719,2.6340376835959087e-08,0.00016755137444605033,-2.6034453515810274e-09,-19.207677434481692,122.72163691017867,-118.46735345132694,10.107006357880158,-19672.693940324953,109.2076774344817,-32.72163691017867,-151.53264654867309,10.107006357880158,0.0007652386164898262,2.6543420787891767e-08,0
2024-02-06 10:00:57.804669,-2.21343994140625,8.798723220825195,-4.924604892730713,0,7.522099999999999e-05,-0.00017921193719605525,-2.0646162515120046e-09,0.0007286494347997905,2.664421153372128e-08,0.00016542637391819161,-2.5338530021729017e-09,-14.120539110707416,119.23553866154252,-114.2022722154889,10.32320589935163,2874.1912693459503,104.12053911070741,-29.235538661542517,-155.79772778451112,10.32320589935163,0.0007683832393118283,2.6843938972444307e-08,0
2024-02-06 10:00:57.879661,-2.28283429145813,8.896832466125488,-4.946141242980957,0,7.4992e-05,-0.0001786971137963923,-2.0236356651733716e-09,0.0007266232936736348,2.6477582806311084e-08,0.00016655657435073055,-2.5718650497496912e-09,-14.391033528558125,119.07161143423328,-114.77513934285089,10.432126989644964,1452.436130431702,104.39103352855813,-29.07161143423326,-155.2248606571491,10.432126989644964,0.0007665866955848715,2.6679055125782584e-08,0
2024-02-06 10:00:57.954652,-2.2732627391815186,8.624040603637695,-3.1012089252471924,0,7.4991e-05,-0.00017869483574787698,-2.023456969198599e-09,0.0007266145332370999,2.6476856187397625e-08,0.00016656059802581466,-2.57203160833588e-09,-14.767036957965967,109.77860798076625,-126.24233669757433,9.442420061222416,-13197.676100099314,104.76703695796597,-19.778607980766242,-143.75766330242567,9.442420061222416,0.0007665787350618632,2.667833649740203e-08,0
2024-02-06 10:00:58.028941,-2.2301902770996094,9.70563507080078,-3.2423903942108154,0,7.428899999999999e-05,-0.00017711412373916228,-1.898568024418647e-09,0.0007201808170753719,2.5969031019437943e-08,0.00016878720138694444,-2.6897386859297598e-09,-12.940957310723768,108.47308093024274,-124.52108293535352,10.473117791187983,13874.163469229188,102.94095731072377,-18.473080930242737,-145.4789170646465,10.473117791187983,0.0007606043264820932,2.617689490429417e-08,0
2024-02-06 10:00:58.103944,-2.2038683891296387,7.52569580078125,-2.347442865371704,0,7.5003e-05,-0.00017869708268300613,-2.0255926251113623e-09,0.0007263324021965268,2.6485436238718017e-08,0.00016679163091327346,-2.5699370427985807e-09,-16.322447537568923,107.32393773166696,-133.1931614921211,8.185573966966881,-30499.364348374085,106.32244753756892,-17.32393773166696,-136.8068385078789,8.185573966966881,0.0007663620906482157,2.6686811998476915e-08,0
2024-02-06 10:00:58.179647,-1.9334697723388672,5.549153804779053,-1.359171748161316,0,7.5703e-05,-0.0001801451510395201,-2.151187406914247e-09,0.000730908599558473,2.699547058933227e-08,0.0001654943157985369,-2.4536369614494466e-09,-19.20966796647491,103.76268755931233,-144.89392209765782,6.031480842267663,-28454.52788792014,109.20966796647491,-13.762687559312328,-125.10607790234221,6.031480842267663,0.0007707580845590954,2.719197260107771e-08,0
2024-02-06 10:00:58.254651,-2.9839563369750977,6.331634998321533,-0.49054616689682,0,7.5004e-05,-0.00017842651061431486,-2.0258666111662318e-09,0.0007267562638717894,2.6486016719563394e-08,0.00016614079220984973,-2.569543431698378e-09,-25.233441256414544,94.43016556642378,-170.66438837333047,7.016710961326619,13135.701016731855,115.23344125641454,-4.430165566423774,-99.33561162666953,7.016710961326619,0.0007665594886262897,2.6687370995334366e-08,0
2024-02-06 10:00:58.344673,-2.51733922958374,6.666641712188721,-1.0528795719146729,0,9.0022e-05,-0.00021973573902360515,-5.015666943697372e-09,0.0008243603236910108,3.813335117557246e-08,0.00015455120833711422,-1.6146719959122574e-10,-20.6866516614769,98.97473914924882,-157.3028328277558,7.203448056899629,2074.3495542535143,110.6866516614769,-8.974739149248823,-112.69716717224424,7.203448056899629,0.0008670293041637406,3.8462130185757726e-08,0
2024-02-06 10:00:58.419676,-1.6654640436172483,7.473052024841309,0.0574297942221164,0,7.5003e-05,-0.00018832497784350232,-1.951334990383829e-09,0.0007181782935727838,2.654965742922999e-08,0.00016202653844269647,-2.5388077890342142e-09,-12.563769024084735,89.55969528351481,178.02506600236006,7.656603374070718,6041.8292224456245,102.56376902408473,0.4403047164851853,-88.02506600236006,7.656603374070718,0.0007599335219600422,2.6742056069865392e-08,0
2024-02-06 10:00:58.494650,-3.1442811489105225,9.090658187866213,0.2656128108501434,0,7.4974e-05,-0.00018825523653821067,-1.945874577275295e-09,0.0007179381197746996,2.6528833741236456e-08,0.00016202185432492294,-2.543506490729344e-09,-19.079503638041242,88.3263957073203,175.17140905185585,9.622739755251661,26224.242819923482,109.07950363804125,1.673604292679707,-85.17140905185587,9.622739755251661,0.0007596882644799609,2.672143096484607e-08,0
2024-02-06 10:00:58.569678,-2.5388755798339844,9.743921279907228,0.5575475692749023,0,7.5028e-05,-0.00018840868176988676,-1.956044503069613e-09,0.0007184466534203294,2.6567616130112718e-08,0.0001620440796551863,-2.5347567105118818e-09,-14.604263061872008,86.72510421449535,167.6142176985934,10.084678993944756,6156.891276498037,104.604263061872,3.2748957855046643,-77.61421769859338,10.084678993944756,0.0007602116211479759,2.6759845450160943e-08,0
2024-02-06 10:00:58.644683,0.679585874080658,10.318220138549805,0.1698964685201645,0,7.5005e-05,-0.0001883872999382706,-1.95171134927997e-09,0.0007182159387940172,2.6551094510302256e-08,0.00016203571404875168,-2.5384836281394764e-09,3.7682125246601155,89.05667151001094,14.036243467926479,10.341971214320814,3430.3342493974847,86.23178747533989,0.9433284899890576,75.96375653207353,10.341971214320814,0.0007599865012900506,2.6743479504661373e-08,0
2024-02-06 10:00:58.719644,1.710929274559021,12.433550834655762,-0.5384043455123901,0,7.4961e-05,-0.00018843989127154066,-1.943421151073354e-09,0.0007177153998326066,2.6519504020852468e-08,0.0001620438212220455,-2.545613377915434e-09,7.835028393239011,92.47950383811649,-17.468024114922684,12.56225873717695,29619.235640614934,82.164971606761,-2.479503838116488,107.46802411492268,12.56225873717695,0.0007595282666073401,2.6712190601900688e-08,0
2024-02-06 10:00:58.794656,2.572376251220703,9.509416580200195,-1.7444299459457395,0,7.501199999999999e-05,-0.0001883306669806333,-1.9530288003087827e-09,0.0007182749455016854,2.6556121774658487e-08,0.00016198560894761332,-2.5373506274461095e-09,15.136717027129691,100.39490206907364,-34.1427460228568,10.004456962271512,-34098.56789454273,74.86328297287032,-10.394902069073645,124.1427460228568,10.004456962271512,0.000760017549117748,2.6748459271739885e-08,0
2024-02-06 10:00:58.869631,2.122509479522705,8.705399513244629,-2.0626866817474365,0,7.4975e-05,-0.00018841752236665202,-1.9460589588058603e-09,0.0007179379714039568,2.652955183569574e-08,0.0001620560406052256,-2.5433453979628346e-09,13.702247831601431,103.3300249046723,-44.181075321055395,9.194765006400209,-10799.492575809309,76.29775216839857,-13.330024904672294,134.1810753210554,9.194765006400209,0.0007597356473241591,2.6722141977905786e-08,0
2024-02-06 10:00:58.944666,2.7805593013763428,8.540288925170898,-1.581712245941162,0,7.5035e-05,-0.00018827043030322506,-1.9573595973859556e-09,0.0007184553420571092,2.657264363509957e-08,0.00016194670863739496,-2.5336253154855567e-09,18.034286273422367,100.49262679269815,-29.633244654894646,9.119751015396606,-999.7200107097082,71.96571372657763,-10.492626792698145,119.63324465489465,9.119751015396606,0.0007601648307409681,2.6764825865130265e-08,0
2024-02-06 10:00:59.019665,2.3522286415100098,9.451987266540527,-1.81382429599762,0,7.499899999999999e-05,-0.00018836282048619705,-1.950580198871744e-09,0.0007181314810856583,2.6546785072282993e-08,0.00016200782829514987,-2.539456497150344e-09,13.974792469810868,100.8629288545659,-37.63613412003269,9.907724332334624,10506.450978519955,76.02520753018914,-10.862928854565897,127.6361341200327,9.907724332334624,0.0007598946721070673,2.67392109099565e-08,0
2024-02-06 10:00:59.109692,2.311549186706543,9.542917251586914,-1.7228938341140747,0,9.0027e-05,-0.00015331919388497786,-4.517978854856753e-09,0.000860859193634868,3.841132100213303e-08,0.0001354329282654906,-3.0448665235369096e-10,13.616303330955835,100.23403006738789,-36.698696110674575,9.96889625168339,679.4841475198093,76.38369666904417,-10.234030067387884,126.69869611067456,9.96889625168339,0.0008848318509964365,3.8677311517003096e-08,0
2024-02-06 10:00:59.184481,2.2110471725463867,9.363449096679688,-1.809038519859314,0,7.478899999999999e-05,-0.00018777685554612593,-1.9191680542411724e-09,0.0007168115884274247,2.6391047313600422e-08,0.00016234272087041387,-2.5732393231201476e-09,13.286215794291822,100.93493993422271,-39.28940568496465,9.78956224515028,-2397.866083690236,76.71378420570818,-10.934939934222697,129.28940568496466,9.78956224515028,0.0007585737668824616,2.6585562716315934e-08,0
2024-02-06 10:00:59.259688,1.742037057876587,9.655384063720703,-1.6032484769821167,0,7.5207e-05,-0.00018695066094196752,-1.9974861051871854e-09,0.0007207865245579485,2.669150531921437e-08,0.000161629552888074,-2.5055291179046224e-09,10.227353815360607,99.42777934027646,-42.62428584249263,9.941405343708329,2019.0022013648775,79.7726461846394,-9.42777934027646,132.62428584249264,9.941405343708329,0.0007619762962046544,2.688315612250044e-08,0
2024-02-06 10:00:59.334637,2.292405843734741,9.480701446533203,-1.6104271411895752,0,7.4949e-05,-0.00018747110407627536,-1.9491856974998328e-09,0.0007183179695271258,2.6505860839477398e-08,0.00016204411704281814,-2.5472830213257068e-09,13.593050347695751,99.6404557580847,-35.088242611103034,9.885964801058417,-739.7102382941947,76.40694965230425,-9.640455758084698,125.08824261110306,9.885964801058417,0.0007598581552351314,2.6699225354227295e-08,0
2024-02-06 10:00:59.409690,2.3570144176483154,9.581204414367676,-1.7587873935699463,0,7.5053e-05,-0.00018722933422268343,-1.968670120291378e-09,0.0007193091886318927,2.6580617451701666e-08,0.00016186891788701064,-2.530439543509356e-09,13.820554543232094,100.40177788705371,-36.730038186250916,10.022391335937808,1817.7359316668317,76.17944545676791,-10.401777887053711,126.73003818625092,10.022391335937808,0.0007606984152879857,2.6773270447212668e-08,0
2024-02-06 10:00:59.484596,1.8832186460494995,9.822887420654297,-1.555390238761902,0,7.4906e-05,-0.0001875409913528652,-1.941124501361576e-09,0.0007178829878820186,2.6474983826727895e-08,0.00016211250994298702,-2.5542521784548607e-09,10.852909585853675,98.9977109100765,-39.55402320342999,10.121999236441027,1329.7719876007172,79.14709041414633,-8.997710910076504,129.55402320343,10.121999236441027,0.0007594788170897493,2.666865083101189e-08,0
2024-02-06 10:00:59.559012,1.4405306577682495,9.978426933288574,-0.5312256217002869,0,7.4416e-05,-0.00018835530993230055,-1.8490299075467097e-09,0.0007130316658653025,2.6124409736559798e-08,0.00016262373082880026,-2.6338125574439493e-09,8.214722574217944,93.04740216445231,-20.242500817606736,10.095857234534366,-351.29544596137396,81.78527742578206,-3.0474021644523073,110.24250081760674,10.095857234534366,0.0007552074927693841,2.632186665626912e-08,0
2024-02-06 10:00:59.634658,-0.3421858549118042,10.100464820861816,-0.2943277060985565,0,7.5646e-05,-0.00018767982787854383,-2.080291517300379e-09,0.000725380184294105,2.7009033024407835e-08,0.00016211601553220396,-2.434097613431932e-09,-1.9403374054601634,91.66912759517201,-139.2998615967173,10.110544473733652,194.15751261516135,91.94033740546017,-1.669127595172015,-130.7001384032827,10.110544473733652,0.0007666040255902048,2.7198167381318543e-08,0
2024-02-06 10:00:59.709612,0.8518753051757812,9.109801292419434,0.0574297942221164,0,7.4954e-05,-0.00018785618042833517,-1.950356058426199e-09,0.0007187334322189097,2.6509369713094332e-08,0.0001621979822097132,-2.5463102566506353e-09,5.342304454040463,89.63880208450229,3.8568008762918966,9.149725094460463,-12818.78724648704,84.65769554595954,0.3611979154977094,86.14319912370811,9.149725094460463,0.0007603787717625997,2.6702701497475624e-08,0
2024-02-06 10:00:59.783946,-0.5934411883354187,10.576653480529783,0.0693943351507186,0,7.4334e-05,-0.00018793629500455568,-1.8338603910420019e-09,0.0007126306312392954,2.6065646853422285e-08,0.00016215866672960764,-2.6468608178218254e-09,-3.211418594666484,89.62408284602917,173.33037990588068,10.593516265384537,19423.025411306724,93.21141859466648,0.37591715397084025,-83.33037990588068,10.593516265384537,0.0007546243441316216,2.6263793747478223e-08,0
2024-02-06 10:00:59.874637,-1.0385221242904663,9.89706802368164,0.2368979007005691,0,9.069099999999999e-05,-0.00020128330695686646,-5.017092905683491e-09,0.0008800749625614885,3.909158955232199e-08,0.0001646636777805174,2.6055726754230973e-11,-5.990256372871075,88.62882032096283,167.15009374359983,9.954225448691561,-7049.109798028199,95.99025637287109,1.3711796790371613,-77.15009374359981,9.954225448691561,0.0009176933235930747,3.941223507811205e-08,0
2024-02-06 10:00:59.949646,-0.8303391337394714,8.525931358337402,-0.2345049977302551,0,7.5009e-05,-0.00018662956583265374,-1.9754680701408654e-09,0.0007356202244070773,2.6422923591301474e-08,0.00016464491502832717,-2.556052949459918e-09,-5.56248502961331,91.57551819013653,-164.22921943212063,8.569478467098259,-18461.07775857967,95.56248502961331,-1.5755181901365398,-105.7707805678794,8.569478467098259,0.0007765794598392934,2.661966889141082e-08,0
2024-02-06 10:01:00.024093,-0.2273262739181518,9.61949062347412,0.3709007501602173,0,7.4447e-05,-0.00018633236185310194,-1.8706657684611683e-09,0.0007305213608301882,2.6010937805849805e-08,0.00016460658782189435,-2.64857262176083e-09,-1.3537527875584157,87.79192820084648,121.50426758284917,9.629322118217328,14236.217055342308,91.35375278755842,2.208071799153519,-31.50426758284916,9.629322118217328,0.0007716712619097023,2.6212272180980806e-08,0
2024-02-06 10:01:00.099695,0.0406794361770153,10.023892402648926,1.7228938341140747,0,7.5602e-05,-0.00018644015040189746,-2.08594189428843e-09,0.0007418654145277743,2.6861241168619026e-08,0.00016581575419431275,-2.4577537192464705e-09,0.23251917688583984,80.24736781998179,88.64743434347933,10.170960469888714,7164.338928485835,89.76748082311417,9.7526321800182,1.352565656520672,10.170960469888714,0.0007826998705080877,2.705398277610029e-08,0
2024-02-06 10:01:00.174633,-0.1100737750530242,9.681706428527832,1.2562767267227173,0,7.4938e-05,-0.00018641711148139063,-1.96215328334318e-09,0.0007353231557158237,2.6370814563298157e-08,0.00016482666956811495,-2.567527003935595e-09,-0.651382178958919,82.60673586938114,95.00741384100891,9.763492552271279,-5437.400485967532,90.65138217895893,7.393264130618855,-5.0074138410089155,9.763492552271279,0.0007762855877741511,2.656806543870161e-08,0
2024-02-06 10:01:00.249003,-0.4953319728374481,9.04519271850586,1.3472073078155518,0,7.437000000000001e-05,-0.00018624517624898974,-1.8563171936277521e-09,0.0007300047163580661,2.5954661447629173e-08,0.00016408728010230608,-2.6609385656419946e-09,-3.1344951529782774,81.5285396616436,110.1871205972142,9.158374998243852,-8136.581336929225,93.13449515297827,8.471460338356396,-20.1871205972142,9.158374998243852,0.000771050443922063,2.6156661836605355e-08,0
2024-02-06 10:01:00.323918,0.4881532490253448,8.999727249145508,2.0842230319976807,0,7.4915e-05,-0.00018624713245122854,-1.9578213477485593e-09,0.000734921957049251,2.635385396613266e-08,0.00016502234486990517,-2.571256192837069e-09,3.104731886770426,76.96088619925439,76.81815901066369,9.250803738089775,1233.7814836270861,86.89526811322958,13.039113800745614,13.18184098933631,9.250803738089775,0.0007759063420321866,2.6551271941418346e-08,0
2024-02-06 10:01:00.399653,1.2706341743469238,9.743921279907228,2.3163349628448486,0,7.573499999999999e-05,-0.0001855260296076459,-2.110248344192697e-09,0.0007426068529461625,2.6959640778230776e-08,0.00016682657364779058,-2.4351981362448143e-09,7.42960358553077,76.62779448000364,61.25286537749484,10.095737752841277,11156.453617897956,82.57039641446923,13.372205519996358,28.747134622505154,10.095737752841277,0.0007834002497954939,2.7151529771417707e-08,0
2024-02-06 10:01:00.474658,0.8686256408691406,10.35650634765625,3.338106870651245,0,7.5005e-05,-0.00018630685944019977,-1.974529339690236e-09,0.0007352701968621019,2.642021565505077e-08,0.00016476270237856454,-2.556228221994432e-09,4.7943168402925265,72.13484207715786,75.4142432253741,10.915800094949915,10933.435665737461,85.20568315970748,17.86515792284215,14.58575677462591,10.915800094949915,0.0007761953725468814,2.6616928149123598e-08,0
2024-02-06 10:01:00.549624,0.3589362204074859,10.763300895690918,-0.4977248907089233,0,7.4966e-05,-0.00018633079689649466,-1.9672629053916697e-09,0.0007348583606208567,2.639154814817985e-08,0.00016470731492995564,-2.5626528873319487e-09,1.9100006761662662,92.64762963234976,-54.20259688521591,10.780779723579021,-1801.0881115558248,88.08999932383374,-2.6476296323497683,144.2025968852159,10.780779723579021,0.0007757992495729106,2.658855255213371e-08,0
2024-02-06 10:01:00.624639,2.129688262939453,7.164366722106934,-0.2919347882270813,0,7.5015e-05,-0.00018626982559665265,-1.976391620642752e-09,0.0007352975884774926,2.6427566968932758e-08,0.00016468796826782172,-2.5545827028936032e-09,16.555171192494225,92.33340690314417,-7.805381445137523,7.479902977092183,-44002.889375282786,73.44482880750579,-2.333406903144162,97.80538144513753,7.479902977092183,0.0007761965720362378,2.662420538760727e-08,0
2024-02-06 10:01:00.714410,0.1938255578279495,10.409150123596191,0.4690099954605102,0,8.9771e-05,-0.00016912694062703074,-4.598508961841089e-09,0.0008649549957650903,3.823423053547454e-08,0.00016599442914678995,-1.1480797476859758e-10,1.0667636681683523,87.42014190113957,67.54639017965671,10.42151356657332,32767.938303919276,88.93323633183165,2.579858098860431,22.453609820343303,10.42151356657332,0.0008968306513788516,3.850994482186409e-08,0
2024-02-06 10:01:00.789287,0.9428057670593262,9.99996280670166,1.531461238861084,0,7.4877e-05,-0.00017759143410346628,-2.0164972252230755e-09,0.0007129683317731621,2.6483435515297168e-08,0.00015109691986479702,-2.4761872508578875e-09,5.3859784166950275,81.29299135797926,58.38251052655575,10.160389381118756,-3487.3751012268694,84.61402158330498,8.707008642020751,31.61748947344425,10.160389381118756,0.0007501285481642199,2.6675271714708867e-08,0
2024-02-06 10:01:00.864698,0.6604426503181458,8.116744041442871,1.2921704053878784,0,7.5411e-05,-0.0001771633667760265,-2.111216757057901e-09,0.0007178054925016168,2.6865452126378538e-08,0.0001518508295138115,-2.395300201773798e-09,4.651790864889875,80.95452610519835,62.92791980857384,8.245448604243306,-25393.387925839077,85.34820913511012,9.045473894801644,27.072080191426164,8.245448604243306,0.0007547782840125558,2.7054523045262446e-08,0
2024-02-06 10:01:00.939666,0.06460852175951,9.239018440246582,1.86646831035614,0,7.4968e-05,-0.0001773239656106417,-2.0326978129342547e-09,0.0007139611911119227,2.654831580595814e-08,0.00015115119103827423,-2.4624151493260843e-09,0.40066326322332846,78.5788140909067,88.01747603699627,9.425886693243456,15745.892767582834,89.59933673677666,11.421185909093293,1.9825239630037421,9.425886693243456,0.0007510200088853348,2.673964137566593e-08,0
2024-02-06 10:01:01.014645,0.6412993669509888,8.662327766418457,1.524282455444336,0,7.4979e-05,-0.0001773200831172538,-2.0346483552022577e-09,0.0007140596485160593,2.6556169920576094e-08,0.00015116984016748614,-2.460752383654453e-09,4.234062521830589,80.02001349403173,67.18243229984294,8.818765458662076,-8097.217015182644,85.7659374781694,9.97998650596828,22.817567700157067,8.818765458662076,0.000751116445094801,2.674743458863857e-08,0
2024-02-06 10:01:01.089633,1.2945632934570312,10.066964149475098,1.4309589862823486,0,7.4988e-05,-0.00017731137173528197,-2.0362441967490926e-09,0.0007141439303296808,2.6562596836680896e-08,0.0001511831387539739,-2.4593917952493076e-09,7.3277466515067164,81.90994208958841,47.86491273161093,10.250234384052172,19089.30662759503,82.67225334849329,8.090057910411602,42.13508726838908,10.250234384052172,0.0007511971893030982,2.6753811861852207e-08,0
2024-02-06 10:01:01.164653,0.5958341360092163,14.788171768188477,0.2895418703556061,0,7.502e-05,-0.0001772811253764105,-2.04191767670288e-09,0.0007145416125043635,2.658545580536624e-08,0.00015121066676768011,-2.4545534943609607e-09,2.3072714002805634,88.87833276118677,25.917144428303526,14.803002298782824,60687.388892703966,87.69272859971944,1.1216672388132312,64.08285557169647,14.803002298782824,0.0007515736684845929,2.6776495682486027e-08,0
2024-02-06 10:01:01.239558,-2.696807384490967,7.595090389251709,-0.3134709596633911,0,7.4905e-05,-0.0001771603194146228,-2.0215372936273964e-09,0.0007132545749303107,2.650335752458875e-08,0.0001512120426903153,-2.4719428001547946e-09,-19.54854894624782,92.36341823306576,-173.36981838728926,8.065756761302747,-89943.86940097559,109.54854894624782,-2.363418233065763,-96.63018161271076,8.065756761302747,0.0007503218971139568,2.669503838380718e-08,0
2024-02-06 10:01:01.314287,-0.7729093432426453,8.135887145996094,-0.0765730589628219,0,7.472900000000001e-05,-0.00017685498434258227,-1.9903839468967636e-09,0.0007118702489072089,2.6377946540091053e-08,0.0001512463665639544,-2.498559140169169e-09,-5.426812947855471,90.53923849808483,-174.3421009109534,8.172876601210566,1433.4440432471838,95.42681294785548,-0.5392384980848262,-95.65789908904661,8.172876601210566,0.0007489408522472418,2.6570669726314557e-08,0
2024-02-06 10:01:01.404590,-0.9978426694869996,10.021498680114746,0.5766908526420593,0,9.030299999999999e-05,-0.000190643830265708,-4.852097216251517e-09,0.000853261812335134,3.856562990098517e-08,0.00015514078382333462,-1.1272240010335202e-10,-5.686210429954505,86.70652535956587,149.9747653662966,10.08755164190556,21202.784411315162,95.68621042995451,3.2934746404341406,-59.97476536629658,10.08755164190556,0.0008879580244657605,3.8869825872972495e-08,0
2024-02-06 10:01:01.479635,-1.9215052127838133,8.284247398376465,1.079201579093933,0,7.5045e-05,-0.00016837212527186397,-2.1131644914553814e-09,0.0007136072755023245,2.66119856298732e-08,0.00014250798046162074,-2.383484822833276e-09,-13.058662130409882,82.57778946236353,150.67952364120404,8.57237500862984,-20190.240965763478,103.05866213040989,7.422210537636467,-60.67952364120402,8.57237500862984,0.0007469223793097007,2.6801944765878505e-08,0
2024-02-06 10:01:01.554602,-1.2921704053878784,9.432844161987305,1.7157150506973269,0,7.4967e-05,-0.00016824679192275528,-2.100036353684792e-09,0.0007129163089314703,2.6556351210080287e-08,0.00014239897871305888,-2.394596194241088e-09,-7.800187718664925,79.69131721460222,126.9847970290006,9.674292298462332,14698.697958201508,97.80018771866493,10.308682785397774,-36.98479702900059,9.674292298462332,0.000746213183796221,2.6746663964191953e-08,0
2024-02-06 10:01:01.629632,-1.404637098312378,9.370628356933594,2.0961875915527344,0,7.503e-05,-0.00016833174135912185,-2.1106385774831714e-09,0.0007135086183158164,2.6601283595288577e-08,0.00014251905364628977,-2.385621276221768e-09,-8.525041875404796,77.39065958984558,123.82569602912972,9.704415675387315,401.48443189368714,98.5250418754048,12.609340410154418,-33.82569602912972,9.704415675387315,0.0007468211326764753,2.6791309654350442e-08,0
2024-02-06 10:01:01.704640,-0.8997334241867065,9.741528511047363,2.648949146270752,0,7.500800000000001e-05,-0.00016830639328337436,-2.106935558002105e-09,0.0007132983845902686,2.6585588718256614e-08,0.00014246685714217373,-2.38875612124044e-09,-5.2769017538481755,74.78776211944655,108.76040184608986,10.135276490835164,5744.198158167779,95.27690175384818,15.212237880553454,-18.76040184608987,10.135276490835164,0.0007466046027604659,2.6775714010062003e-08,0
2024-02-06 10:01:01.779481,0.0071787242777645,9.717599868774414,3.153852939605713,0,7.484100000000001e-05,-0.00016823186496593196,-2.078834613438288e-09,0.0007116735473705535,2.6466603561937884e-08,0.00014198232316800304,-2.41250762779634e-09,0.04232634952426976,72.01912992721734,89.8695849486478,10.216583925576414,1086.4023027651942,89.95767365047573,17.98087007278266,0.1304150513521944,10.216583925576414,0.0007449430706497553,2.6657510208363192e-08,0
2024-02-06 10:01:01.854322,0.9667348861694336,12.37133502960205,3.68029260635376,0,7.484100000000001e-05,-0.00016823186496593196,-2.078834613438288e-09,0.0007116735473705535,2.6466603561937884e-08,0.00014198232316800304,-2.41250762779634e-09,4.4681917363780945,73.43302236595684,75.28211184651661,12.943301758947674,36433.476748991336,85.53180826362191,16.56697763404316,14.717888153483386,12.943301758947674,0.0007449430706497553,2.6657510208363192e-08,0
2024-02-06 10:01:01.929623,0.2919347882270813,9.286876678466797,0.4809745252132416,0,7.5301e-05,-0.00016794237094082078,-2.15615468769684e-09,0.0007166549360634092,2.679511911312769e-08,0.00014293941460826343,-2.3469756281078e-09,1.8005111414792692,87.03525613765619,58.74370722879004,9.303904602667194,-48331.32569661068,88.19948885852074,2.9647438623438185,31.25629277120996,9.303904602667194,0.0007498203875527968,2.6983989807345207e-08,0
2024-02-06 10:01:02.004691,1.1653462648391724,7.554410934448242,0.3421858549118042,0,7.5068e-05,-0.00016811214418350302,-2.1170043366848544e-09,0.0007146929260565045,2.6628367087190713e-08,0.00014284351642397886,-2.3802693395730574e-09,8.769345208030545,87.40649360236851,16.36405813593661,7.651421282532252,-22013.152343674294,81.23065479196946,2.5935063976314834,73.6359418640634,7.651421282532252,0.0007479652009027898,2.681822744367412e-08,0
2024-02-06 10:01:02.079665,-1.0409150123596191,10.1578950881958,1.4524952173233032,0,7.4974e-05,-0.00016811799245236957,-2.10120152026297e-09,0.0007138604476734404,2.6561225078625414e-08,0.00014275916641358382,-2.3936926656664214e-09,-5.850876154031357,81.8623394920482,125.62686761022074,10.313877982703454,35511.73340319581,95.85087615403135,8.137660507951793,-35.626867610220735,10.313877982703454,0.0007471549890978718,2.6751513790509506e-08,0
2024-02-06 10:01:02.169607,0.825553297996521,9.624276161193848,1.6678569316864014,0,8.9942e-05,-0.000169729759522663,-4.629654096044113e-09,0.0008619102173038725,3.835429273531562e-08,0.00016611188189677244,-8.210174011171555e-11,4.90272900076889,80.16846432319186,63.66558009941035,9.802549495887869,-5685.091356825353,85.09727099923111,9.831535676808146,26.33441990058965,9.802549495887869,0.0008940305203222746,3.863278670987937e-08,0
2024-02-06 10:01:02.244710,0.6771929860115051,9.042799949645996,0.98109233379364,0,7.5103e-05,-0.00018087938557686053,-2.028309543978198e-09,0.0007234098460994963,2.6592010524894327e-08,0.00014645800282154326,-2.4012139997792584e-09,4.282745474900302,83.80795374265786,55.38485889426862,9.121039602865972,-9074.336484852756,85.7172545250997,6.192046257342147,34.61514110573139,9.121039602865972,0.0007599270387022919,2.677713375316745e-08,0
2024-02-06 10:01:02.319649,-0.2440766245126724,9.346698760986328,1.5075321197509766,0,7.493900000000001e-05,-0.00018091490111850345,-1.9986424124691794e-09,0.0007219019072052245,2.6473494961123346e-08,0.00014625393561635262,-2.425216378731165e-09,-1.4958632259457987,80.83765258667513,99.19665572869518,9.470639060767638,4665.120403283555,91.4958632259458,9.162347413324879,-9.196655728695173,9.470639060767638,0.0007584607957940414,2.6659373237816557e-08,0
2024-02-06 10:01:02.394635,0.3565433025360107,8.717364311218262,1.971756219863892,0,7.4986e-05,-0.0001809122581515699,-2.0071453507120253e-09,0.0007223264126874213,2.650743432664082e-08,0.00014633569889233356,-2.4183405223202114e-09,2.342112361357784,77.25488913427724,79.75023368596128,8.944684804489036,-7014.032703152619,87.65788763864222,12.745110865722761,10.249766314038721,8.944684804489036,0.0007588799828600612,2.6693090452811133e-08,0
2024-02-06 10:01:02.469615,-0.1866468340158462,10.416329383850098,1.9908995628356931,0,7.498e-05,-0.00018091276784097546,-2.0060598756340475e-09,0.0007222690116063361,2.650310054036794e-08,0.00014632381092498546,-2.419218500849663e-09,-1.0265546650271518,79.17941670799117,95.35582504285519,10.606527987178767,22163.819454384247,91.02655466502715,10.820583292008832,-5.355825042855189,10.606527987178767,0.0007588231759364545,2.6688784772490738e-08,0
2024-02-06 10:01:02.559640,0.3326142132282257,9.724778175354004,2.115330696105957,0,9.002499999999999e-05,-0.00017981472823085033,-4.719632464834355e-09,0.0008737804932204489,3.850938294042742e-08,0.000177212928047874,1.458661807367077e-11,1.9589099308241658,77.72820266408263,81.06398842342335,9.957739036978781,-7206.764234379183,88.04109006917584,12.271797335917366,8.93601157657665,9.957739036978781,0.0009095219121541857,3.8797522057794204e-08,0
2024-02-06 10:01:02.619427,-2.514946460723877,12.079400062561035,-0.6412993669509888,0,5.9787e-05,-0.0001468200469809636,2.1875870159305823e-10,0.0005441231224414115,1.707209817523576e-08,0.00015492704838238004,-5.0070376855753385e-09,-11.761036944711146,93.03899890993736,-165.69470443103387,12.355085044213933,40098.11509584277,101.76103694471115,-3.0389989099373635,-104.30529556896613,12.355085044213933,0.0005844899390848058,1.7792549504193673e-08,0
2024-02-06 10:01:02.694623,-2.038757801055908,8.33210563659668,-1.2203831672668457,0,7.5196e-05,-0.00018190406146584596,-2.313896191935386e-09,0.0007013835681005721,2.6668104472516474e-08,0.00014058371529749873,-2.730275006803712e-09,-13.749380541303484,98.33272342285841,-149.0956177977909,8.664286051702168,-49082.384601731,103.74938054130348,-8.332723422858397,-120.90438220220909,8.664286051702168,0.0007381001139317811,2.690717958755401e-08,0
