timestamp,ax,ay,az,fall_state,time_interval,vx,dx,vy,dy,vz,dz,angle_xy,angle_yz,angle_zx,g_force,jerk,orientation_xy,orientation_yz,orientation_zx,magnitude_acceleration,magnitude_velocity,magnitude_displacement,impact_detection
2024-02-06 10:04:01.135501,-0.3469716608524322,9.712814331054688,0.708300769329071,0,0.0,0.0,0.0,0.0,0.0,0.0,0.0,-2.0459118252821784,85.8291250085462,116.098610101322,9.74478535129472,inf,92.04591182528218,4.1708749914538075,-26.09861010132198,9.74478535129472,0.0,0.0,1
2024-02-06 10:04:01.210275,-0.3804723918437958,9.55727481842041,0.4211518168449402,0,7.4774e-05,-2.7196950798153878e-05,-1.016812399490579e-09,0.0007204508230314254,2.6935494920675902e-08,4.222684383928776e-05,1.5787350106194513e-09,-2.2797248796238208,87.47683085269904,132.094945841244,9.574112494043508,-2282.5160784659365,92.27972487962383,2.523169147300966,-42.09494584124399,9.574112494043508,0.0007221995353640177,2.700087402865453e-08,0
2024-02-06 10:04:01.284674,-0.3661149442195892,9.638633728027344,0.588655412197113,0,7.4399e-05,-2.7056965672641995e-05,-1.0066397901523049e-09,0.0007168515901789665,2.6666000718198957e-08,4.203750498384237e-05,1.5629354452151146e-09,-2.1752835541608775,86.50514456187915,121.8795963368625,9.663530177412195,1201.8667370352698,92.17528355416088,3.4948554381208465,-31.879596336862495,9.663530177412195,0.000718592675692419,2.673072548914479e-08,0
2024-02-06 10:04:01.360230,-0.339792937040329,9.588382720947266,0.339792937040329,0,7.555599999999999e-05,-2.7465333381950856e-05,-1.0381809401553866e-09,0.0007279744191946982,2.7501832564621614e-08,4.257461235387623e-05,1.6118835550949844e-09,-2.0295974802069883,87.97040251979301,135.0,9.600416745302523,-835.3199230990526,92.02959748020699,2.0295974802069883,-45.0,9.600416745302523,0.0007297353610431132,2.756858325471531e-08,0
2024-02-06 10:04:01.435105,-0.4809745252132416,9.667348861694336,0.3302213251590729,0,7.487499999999999e-05,-2.7185862061053514e-05,-1.0195722081070434e-09,0.0007214178425908087,2.7008314499483646e-08,4.234647249759733e-05,1.5829679257030575e-09,-2.848258237431687,88.04362758182454,145.52778536370215,9.684937616278006,1128.826323545686,92.84825823743168,1.956372418175468,-55.52778536370215,9.684937616278006,0.0007231707947901168,2.7073868712180156e-08,0
2024-02-06 10:04:01.510089,-0.5647262930870056,9.877924919128418,0.2440766245126724,0,7.4984e-05,-2.724285275565088e-05,-1.0225385730645541e-09,0.0007224830600118636,2.70870070986755e-08,4.237777173585444e-05,1.587585397013781e-09,-3.2720688194576657,88.58454933299913,156.62583509517367,9.897064710947152,2828.9647747405584,93.27206881945767,1.4154506670008693,-66.62583509517367,9.897064710947152,0.0007242374062195825,2.7152752458819217e-08,0
2024-02-06 10:04:01.600098,-0.4546525478363037,9.980819702148438,0.1124666780233383,0,9.000900000000001e-05,-3.490093629808725e-05,-1.4893937883307622e-09,0.0008716718789792061,3.906309607784592e-08,4.505630329615622e-05,2.2444338856917617e-09,-2.6081701964482216,89.354402397312,166.10575379404762,9.99180262113469,1052.5381927089297,92.60817019644823,0.6455976026880106,-76.10575379404762,9.99180262113469,0.0008735330620098693,3.915585846985073e-08,0
2024-02-06 10:04:01.675327,-0.5551546812057495,9.82767391204834,0.2225404530763626,0,7.522900000000001e-05,-2.743846087546647e-05,-1.0287056432182002e-09,0.000725287111170292,2.7261569140641127e-08,4.258060059732943e-05,1.5967971659189027e-09,-3.233140620450251,88.70280086952083,158.15602316894106,9.845856767944353,-1940.0211778747191,93.23314062045026,1.2971991304791746,-68.15602316894105,9.845856767944353,0.0007270538978041388,2.732766269733715e-08,0
2024-02-06 10:04:01.749544,-0.3278284072875976,10.349327087402344,1.177310824394226,0,7.421700000000001e-05,-2.699167143268884e-05,-1.0011639962702738e-09,0.00071507754866457,2.653274462276469e-08,4.187227585092931e-05,1.554064010436084e-09,-1.8143117410927183,83.51008932039629,105.56014169471719,10.421233295723708,7752.624436171695,91.81431174109272,6.48991067960372,-15.56014169471718,10.421233295723708,0.0007168108107553882,2.6597067159986062e-08,0
2024-02-06 10:04:01.824581,-0.27997025847435,10.026285171508787,0.9116979837417604,0,7.503700000000001e-05,-2.7240868885651237e-05,-1.023399337800793e-09,0.0007234315496907235,2.7122533353090357e-08,4.2728769462265065e-05,1.5887504390144935e-09,-1.599490402895957,84.8043382892294,107.07102195167313,10.071542627602089,-4660.243188315353,91.59949040289595,5.195661710770595,-17.071021951673124,10.071542627602089,0.000725204122827033,2.718829324638784e-08,0
2024-02-06 10:04:01.900116,-0.6628355383872986,12.534052848815918,-3.268712520599365,0,7.5535e-05,-2.7475627529069785e-05,-1.0370237454080584e-09,0.0007290490738577842,2.748420102835393e-08,4.214187284258753e-05,1.6098832289484015e-09,-3.0271402203805704,104.61642105712937,-101.46310754406188,12.97020868414162,38375.13810206568,93.02714022038057,-14.616421057129358,-168.53689245593813,12.97020868414162,0.0007307827308083367,2.755083389711391e-08,0
2024-02-06 10:04:01.975298,-0.1794681102037429,9.93056869506836,0.8111958503723145,0,7.5182e-05,-2.7326960935093466e-05,-1.0273510885441334e-09,0.0007250840681552886,2.7227546528788622e-08,4.257562453488261e-05,1.5949305906612779e-09,-1.035353193793421,85.33006281725352,102.47510982764157,9.965261768649786,-39968.96751206185,91.03535319379341,4.669937182746478,-12.475109827641566,9.965261768649786,0.0007268468562848067,2.7293562314683462e-08,0
2024-02-06 10:04:02.065371,0.4881532490253448,9.535738945007324,0.3732936680316925,0,9.0073e-05,-2.502864573399723e-05,-1.4171647579988483e-09,0.0008700204616894721,3.910389730574779e-08,5.139474124415964e-05,2.294586949069137e-09,2.9305256054601037,87.75819826084218,37.405357150758384,9.55551981759527,-4548.998601739872,87.06947439453991,2.241801739157826,52.594642849241616,9.55551981759527,0.0008718964710865587,3.9196789023038885e-08,0
2024-02-06 10:04:02.125351,0.1124666780233383,9.212696075439451,0.205790102481842,0,5.998e-05,-3.406587346633524e-05,-5.279990748510457e-10,0.0005879221341543197,1.716696403738418e-08,4.268155729112774e-05,8.790679231579355e-10,0.6994202188226252,88.72035897842217,61.34288380642708,9.215680511951495,-5665.877053080606,89.30057978117738,1.2796410215778262,28.65711619357292,9.215680511951495,0.0005904529065864525,1.7197563714009334e-08,0
2024-02-06 10:04:02.200253,0.1363957673311233,9.301233291625977,0.588655412197113,0,7.4902e-05,-3.22091107615456e-05,-1.0224767321752647e-09,0.0007260545611619948,2.69705441611392e-08,4.860891527614743e-05,1.5601861389823755e-09,0.8401403840473817,86.37870082661799,76.95436283633346,9.320840077209038,1403.9620471755436,89.15985961595263,3.621299173382009,13.045637163666541,9.320840077209038,0.0007283923937305428,2.7034975343137867e-08,0
2024-02-06 10:04:02.274745,-0.2488624453544616,9.899460792541504,0.9404128789901732,0,7.4492e-05,-3.2186055092550815e-05,-1.0092757231751752e-09,0.0007221184188747406,2.6673668700231677e-08,4.829545627645404e-05,1.5403207428140925e-09,-1.4400547197907094,84.57339340269256,104.82247294520143,9.947141945440652,8407.639320082886,91.44005471979071,5.426606597307447,-14.822472945201417,9.947141945440652,0.0007244469643234948,2.6737161917560608e-08,0
2024-02-06 10:04:02.350241,-0.3996156454086303,10.20814609527588,1.019378900527954,0,7.5496e-05,-3.251159109411388e-05,-1.0417539415608805e-09,0.0007322124375324248,2.740374279014807e-08,4.927927174977213e-05,1.5893032562832576e-09,-2.2417983147705534,84.29738546537821,111.40611077607093,10.266697263940003,4232.745026217955,92.24179831477055,5.702614534621788,-21.40611077607093,10.266697263940003,0.000734588663033152,2.7469551416500827e-08,0
2024-02-06 10:04:02.440225,0.1746822893619537,9.499845504760742,1.072022795677185,0,8.9984e-05,-3.4141008325316006e-05,-1.5245853717552308e-09,0.0008749771286830901,3.904622400781326e-08,6.442938563708217e-05,2.4130087703936303e-09,1.053430831562433,83.56161821427261,80.74519492074802,9.56173683966418,-7834.286365085161,88.94656916843756,6.43838178572739,9.25480507925198,9.56173683966418,0.0008780100966968125,3.915040971880243e-08,0
2024-02-06 10:04:02.514684,0.4402951002120971,9.674527168273926,1.3519930839538574,0,7.4459e-05,-3.891477031188457e-05,-9.574898900839614e-10,0.0007261360608086585,2.661758287438356e-08,4.56129623714462e-05,1.558805043977429e-09,2.605776504969991,82.04456698575103,71.96144964325305,9.778456984821284,2910.5970420916824,87.39422349503,7.955433014248972,18.038550356746967,9.778456984821284,0.0007286072196262135,2.6680374400098277e-08,0
2024-02-06 10:04:02.590301,0.8375178575515747,9.79417324066162,1.275420069694519,0,7.5617e-05,-3.8174916609339405e-05,-1.0021248188113504e-09,0.0007374084383454323,2.7464975139393784e-08,4.713423458740862e-05,1.6125056710166062e-09,4.887578047192127,82.5805613043389,56.708679114861646,9.912313654439588,1770.1928087375015,85.11242195280788,7.419438695661097,33.29132088513836,9.912313654439588,0.0007398987533921922,2.7530515579971563e-08,0
2024-02-06 10:04:02.665325,0.667621374130249,9.4950590133667,1.177310824394226,0,7.502399999999999e-05,-3.8621190391533073e-05,-9.793547730855912e-10,0.0007316891809821128,2.7029387695263156e-08,4.6406999877311294e-05,1.5847706949978162e-09,4.021990400708422,82.93185947488938,60.44359127662954,9.591033559723767,-4282.364239654255,85.97800959929158,7.068140525110635,29.556408723370467,9.591033559723767,0.0007341759077708467,2.7093512749515014e-08,0
2024-02-06 10:04:02.740311,0.983485221862793,9.552489280700684,1.3472073078155518,0,7.4986e-05,-3.8652561416856934e-05,-9.778865718012322e-10,0.0007313272775645255,2.7001590382550778e-08,4.6359034032799326e-05,1.5830081403535247e-09,5.8782278942095845,81.97240149093078,53.86989312896763,9.69702336646435,1413.4612693113766,84.12177210579041,8.027598509069213,36.13010687103236,9.69702336646435,0.0007338138506804561,2.706562506403267e-08,0
2024-02-06 10:04:02.815284,0.9858781099319458,9.77263641357422,1.2155972719192505,0,7.4973e-05,-3.86653622785136e-05,-9.773840052972121e-10,0.0007312016642475128,2.6992083944429e-08,4.6342375803031046e-05,1.5824055811895917e-09,5.760594287867776,82.90952003771427,50.957130901203335,9.897174083901794,2669.637301927941,84.23940571213222,7.090479962285734,39.042869098796665,9.897174083901794,0.0007336882851957842,2.705608771755984e-08,0
2024-02-06 10:04:02.905080,1.3089207410812378,9.746315002441406,0.9954497814178468,0,8.9796e-05,-2.1657460594229386e-05,-1.424466607018547e-09,0.0008758663726673127,3.890286870002323e-08,6.272955103883895e-05,2.3907921669781112e-09,7.6490008707086155,84.16825971306405,37.25342023627263,9.884070512727634,-145.92600087041305,82.3509991292914,5.831740286935958,52.746579763727375,9.884070512727634,0.0008783768809243108,3.900228436119405e-08,0
2024-02-06 10:04:02.964857,1.296956181526184,9.449594497680664,0.844696581363678,0,5.9776999999999994e-05,-6.07703702641055e-05,-1.8726607975036912e-10,0.0005877453690252304,1.6934788263089e-08,3.5109874206669645e-05,9.222713137556494e-10,7.81501393089714,84.89192299319154,33.07585757176213,9.575512718489968,-5161.814648404341,82.18498606910286,5.108077006808459,56.92414242823788,9.575512718489968,0.0005919209068612536,1.6960917029348933e-08,0
2024-02-06 10:04:03.040222,1.5697476863861084,9.38259220123291,0.6843717098236084,0,7.536500000000001e-05,-3.842728031759707e-05,-9.604125683841596e-10,0.0007345234321565629,2.7240551299499906e-08,4.7027432468183364e-05,1.5624494819794542e-09,9.497862845740345,85.82820063466393,23.556027592955356,9.537584015397089,-503.26680943248175,80.50213715425966,4.171799365336068,66.44397240704465,9.537584015397089,0.0007370297875013014,2.7302221077889143e-08,0
2024-02-06 10:04:03.130306,1.612820029258728,9.691277503967283,0.9284483194351196,0,9.0084e-05,-1.500517321430891e-05,-1.3536487101522215e-09,0.0008748975762519837,3.90850852108826e-08,5.889698147351297e-05,2.342000206383368e-09,9.448557020097496,84.52762406758234,29.92764217377467,9.868336454921993,3671.600278905288,80.5514429799025,5.472375932417667,60.072357826225335,9.868336454921993,0.0008770061451218447,3.917858108379055e-08,0
2024-02-06 10:04:03.205307,1.8257888555526731,9.57402515411377,0.9763064980506896,0,7.5001e-05,-4.09374421191141e-05,-9.317574766152117e-10,0.0007296082962560653,2.6984704173363148e-08,4.4532273017443736e-05,1.561988483639818e-09,10.796800274916405,84.17741807134811,28.13481166479622,9.7953375120411,-973.3062609950998,79.20319972508359,5.822581928651889,61.86518833520378,9.7953375120411,0.0007321115102721951,2.7045928332046107e-08,0
2024-02-06 10:04:03.280275,1.5482115745544434,9.351485252380373,0.9571632146835328,0,7.4968e-05,-4.099311312621085e-05,-9.304056224536642e-10,0.0007292960253343582,2.6960632252056912e-08,4.450037076718363e-05,1.560519445017372e-09,9.400496340308697,84.1558915035314,31.72593152650527,9.52698257186478,-3579.5931621000886,80.59950365969131,5.8441084964686185,58.27406847349473,9.52698257186478,0.0007318014832525881,2.7021779493423857e-08,0
2024-02-06 10:04:03.354695,1.2873845100402832,9.370628356933594,1.42378032207489,0,7.442e-05,-4.177006645338982e-05,-9.077285112488533e-10,0.0007241661662054061,2.656238361157501e-08,4.384799223811181e-05,1.5363119935539207e-09,7.822614057292368,81.36051543364898,47.880061414707455,9.565207006959511,513.6312160001531,82.17738594270763,8.63948456635102,42.11993858529255,9.565207006959511,0.0007266938978355812,2.6622254764015394e-08,0
2024-02-06 10:04:03.430226,1.5099250078201294,9.727170944213867,1.689393162727356,0,7.5531e-05,-4.0216161016218346e-05,-9.532718606082211e-10,0.0007347749937171937,2.7372825425912022e-08,4.557736010891948e-05,1.585987776782697e-09,8.823464860077166,80.14727912190989,48.21068486928032,9.987581156890244,5592.063522669265,81.17653513992283,9.852720878090114,41.789315130719686,9.987581156890244,0.0007372848342082472,2.7435299456462786e-08,0
2024-02-06 10:04:03.505007,-0.2680056989192962,10.39718532562256,1.3687434196472168,0,7.4781e-05,-4.068188075705616e-05,-9.22935094943243e-10,0.000727228360116005,2.682457416822457e-08,4.4430558890529003e-05,1.5522348071579036e-09,-1.4765722976963538,82.50038999123679,101.07859119136789,10.490316882669555,6722.773509037211,91.47657229769636,7.499610008763212,-11.078591191367897,10.490316882669555,0.0007297192458351841,2.688529377545671e-08,0
2024-02-06 10:04:03.579706,-0.2584340870380401,9.882710456848145,1.2873845100402832,0,7.4699e-05,-4.066029672583191e-05,-9.196000656664444e-10,0.0007263968843889237,2.6764975533199862e-08,4.432165764541181e-05,1.54859596627993e-09,-1.4979502561885318,82.5780818951095,101.3508882110047,9.969559319645503,-6971.412776932114,91.49795025618853,7.421918104890502,-11.35088821100469,9.969559319645503,0.0007288827770747536,2.6825505196367495e-08,0
2024-02-06 10:04:03.655221,-0.2440766245126724,10.35650634765625,0.6125844717025757,0,7.5515e-05,-4.0865321096144596e-05,-9.528625177378108e-10,0.0007346544848451615,2.736108449184737e-08,4.50968449899629e-05,1.5850787153551629e-09,-1.3500664923369343,86.6149146792391,111.72419142624011,10.37747834797302,5401.827826624062,91.35006649233694,3.3850853207608997,-21.724191426240104,10.37747834797302,0.0007371708838522106,2.7423518484716586e-08,0
2024-02-06 10:04:03.729799,-0.9786993861198424,8.68864917755127,0.4761887192726135,0,7.4578e-05,-4.029245053516327e-05,-9.148401017285432e-10,0.0007257318294816018,2.6676893503585284e-08,4.4586754749991024e-05,1.5430619488769946e-09,-6.426772508307866,86.86299499936007,154.05464205465458,8.756553700818387,-21734.622102424742,96.42677250830786,3.137005000639923,-64.05464205465456,8.756553700818387,0.0007282157294318608,2.6737139330740556e-08,0
2024-02-06 10:04:03.805213,-1.56256902217865,9.430450439453123,1.201239824295044,0,7.541399999999999e-05,-4.1354700729832026e-05,-9.48968610957311e-10,0.0007333056131215095,2.7286771154593377e-08,4.52879198812023e-05,1.580629562872833e-09,-9.408089988552721,82.7408226483211,142.44837473611383,9.634209596823517,11637.83774902711,99.40808998855272,7.259177351678903,-52.448374736113834,9.634209596823517,0.0007358657005154766,2.734898190578141e-08,0
2024-02-06 10:04:03.894665,-1.012200117111206,9.116979598999023,1.6846072673797607,0,8.945200000000001e-05,-5.942700531850755e-05,-1.6563554057106072e-09,0.0008634900245614053,3.849467973548977e-08,6.554368061766778e-05,2.358556566774403e-09,-6.335240198944579,79.53114178601854,120.99964893854369,9.326401649669236,-3441.0404144600534,96.33524019894458,10.468858213981461,-30.999648938543693,9.326401649669236,0.0008680106943736887,3.860241793264547e-08,0
2024-02-06 10:04:03.969698,-0.6317277550697327,9.440022468566896,1.9191123247146609,0,7.5033e-05,-4.757510732401906e-05,-8.84923674614311e-10,0.0007297033181552887,2.7008552331173752e-08,3.9562664218463026e-05,1.6007923736783173e-09,-3.8285340668373,78.50863739541433,108.2203590879814,9.653812525548908,4363.55837937536,93.8285340668373,11.491362604585674,-18.220359087981393,9.653812525548908,0.0007323220109786358,2.7070417897758257e-08,0
2024-02-06 10:04:04.044481,-0.5049036145210266,9.088264465332031,1.8425391912460327,0,7.4783e-05,-4.743302840282022e-05,-8.730476576484564e-10,0.0007273872822885515,2.6826416006118276e-08,3.9092457778967956e-05,1.5909604834286387e-09,-3.179830327982848,78.5392891720005,105.32435499838574,9.286895569728934,-4906.421991896207,93.17983032798286,11.460710827999515,-15.32435499838574,9.286895569728934,0.0007299797057958448,2.688772885919664e-08,0
2024-02-06 10:04:04.119908,-0.4187589287757873,8.966226577758789,1.873647093772888,0,7.5427e-05,-4.773044774176179e-05,-9.036902969670113e-10,0.0007332008284044267,2.7296725377761406e-08,4.028906976274403e-05,1.6165213352970695e-09,-2.67400078625568,78.19690935273113,102.59851998601505,9.16946735182263,-1556.8459292601203,92.67400078625569,11.803090647268878,-12.598519986015045,9.16946735182263,0.0007358565482190899,2.7359477585093372e-08,0
2024-02-06 10:04:04.194504,-1.081594467163086,9.126551628112791,2.2014753818511963,0,7.4596e-05,-4.7107050905749195e-05,-8.642853162789708e-10,0.0007256832790598871,2.669055903110999e-08,3.8595856374122236e-05,1.5837446484872018e-09,-6.7586421195194095,76.43837749477544,116.16508798392445,9.450411899430781,3766.214644326112,96.75864211951942,13.561622505224557,-26.16508798392444,9.450411899430781,0.0007282341216129596,2.675147056916151e-08,0
2024-02-06 10:04:04.270000,-1.100737690925598,9.71520709991455,2.5532329082489014,0,7.5496e-05,-4.80891003768891e-05,-9.071235843561578e-10,0.0007341620704874994,2.734748943840631e-08,4.0735475104667266e-05,1.619443747652657e-09,-6.464073974021285,75.27519469301045,113.32161173091608,10.105239766686363,8673.676317362271,96.46407397402129,14.724805306989547,-23.32161173091607,10.105239766686363,0.0007368621894557716,2.741041134008848e-08,0
2024-02-06 10:04:04.344724,-0.1124666780233383,10.370863914489746,3.716186285018921,0,7.4724e-05,-4.762080349047481e-05,-8.701795614633554e-10,0.0007264088470759393,2.6783709064226823e-08,3.831547929606589e-05,1.588930079253974e-09,-0.6213188652235376,70.28590108603376,91.73347061726008,11.017146072894464,12203.660219047439,90.62131886522353,19.714098913966254,-1.733470617260084,11.017146072894464,0.0007289757403295126,2.684490608110024e-08,0
2024-02-06 10:04:04.420250,-0.9595561623573304,14.197123527526855,1.4118157625198364,0,7.5526e-05,-4.805068464946746e-05,-9.085438282074721e-10,0.0007362606100401879,2.7370239516530385e-08,4.037180811712892e-05,1.620483681506665e-09,-3.8666304665348354,84.32096158559133,124.20241963367899,14.299380693997694,43458.34045366139,93.86663046653484,5.679038414408678,-34.202419633678986,14.299380693997694,0.0007389306036988038,2.743321764653291e-08,0
2024-02-06 10:04:04.495242,1.395065426826477,8.56900405883789,0.6365135312080383,0,7.4992e-05,-4.816696562308072e-05,-8.82853715584702e-10,0.0007301820539746286,2.6978699325238437e-08,3.982490419570359e-05,1.599071159319139e-09,9.246837582448041,85.75181848109129,24.525350421637082,8.70512421398556,-74598.04352480444,80.75316241755196,4.24818151890871,65.47464957836293,8.70512421398556,0.0007328519028549626,2.704046368939166e-08,0
2024-02-06 10:04:04.570202,0.588655412197113,8.119136810302734,0.3326142132282257,0,7.496e-05,-4.81987051565051e-05,-8.813118648522286e-10,0.0007299150437207223,2.6955337771675308e-08,3.980939815179261e-05,1.597797010481579e-09,4.146815139639897,87.6540929607176,29.4682119963093,8.147240634322964,-7442.417017910827,85.8531848603601,2.3459070392824084,60.5317880036907,8.147240634322964,0.0007325871104584053,2.7017029819633002e-08,0
2024-02-06 10:04:04.660172,-0.1986113786697387,9.923389434814451,1.0241646766662598,0,8.997e-05,-4.527142468488216e-05,-1.5828051893118396e-09,0.0008653242031903268,3.8927608319742725e-08,4.999202372045071e-05,2.271756681632765e-09,-1.1465915678757304,84.10752880857768,100.9748734956848,9.978076850759122,20349.407762989416,91.14659156787573,5.892471191422331,-10.974873495684799,9.978076850759122,0.000867948547412598,3.902595085559298e-08,0
2024-02-06 10:04:04.735068,0.6556568145751953,8.368000030517578,1.5697476863861084,0,7.489600000000001e-05,-4.871617613530158e-05,-8.744206419301155e-10,0.0007274620007901194,2.6922778700342115e-08,3.044170624012503e-05,1.665527658919906e-09,4.48013558976452,79.37539929257694,67.33053886059034,8.539169641607762,-19212.070192685318,85.51986441023548,10.624600707423054,22.669461139409663,8.539169641607762,0.0007297266103751593,2.6988416159331315e-08,0
2024-02-06 10:04:04.810172,0.0622156113386154,9.542917251586914,1.7228938341140747,0,7.5104e-05,-4.8641517403006545e-05,-8.845458420580993e-10,0.0007293247361874582,2.707428452098778e-08,3.0784140958257045e-05,1.6718951470285376e-09,0.3735379183863244,79.76596993261212,87.93188435486043,9.697396744310181,15421.643357243544,89.62646208161368,10.234030067387884,2.068115645139581,9.697396744310181,0.0007315929410298532,2.7140275183806783e-08,0
2024-02-06 10:04:04.885272,0.1483602970838546,8.963833808898926,2.270869731903076,0,7.51e-05,-4.864193855482339e-05,-8.843512751461832e-10,0.0007292877226853372,2.707136729607003e-08,3.0776153431124994e-05,1.6717720264397585e-09,0.9482151265927562,75.78395532068468,86.26206839274722,9.2481985635357,-5981.33396503969,89.05178487340724,14.216044679315326,3.7379316072527793,9.2481985635357,0.000731555734217122,2.7137351126537186e-08,0
2024-02-06 10:04:04.975253,0.3661149442195892,9.315590858459473,1.7875022888183594,0,8.9981e-05,-4.481398552190511e-05,-1.579710078239082e-09,0.0008652957819228174,3.893586586210701e-08,6.097247045130286e-05,2.354427662436963e-09,2.250641017717045,79.13794737797292,78.42481064135512,9.492599097566771,2716.1348954898326,87.74935898228296,10.862052622027084,11.57518935864488,9.492599097566771,0.0008685981381886059,3.903896084658157e-08,0
2024-02-06 10:04:05.034639,-2.0004711151123047,12.187081336975098,3.342892646789551,0,5.9386000000000004e-05,-1.9812421997673794e-05,-5.910876092083238e-10,0.000536358654013157,1.749405712837644e-08,-1.7509746076159143e-05,1.689556636308202e-09,-9.32179270092738,74.66114652620911,120.8973642125886,12.79459915137653,55602.33142171151,99.32179270092739,15.338853473790898,-30.897364212588595,12.79459915137653,0.0005370099896723253,1.758539226175951e-08,0
2024-02-06 10:04:05.110162,0.4570454359054565,11.124629974365234,1.3998512029647827,0,7.5523e-05,-3.2265552090354245e-05,-1.011278743137578e-09,0.0007244491967287065,2.7666885272087164e-08,2.075708267558369e-05,1.7157577716606588e-09,2.3526225954755344,82.82796676995582,71.91836084315244,11.221669483079129,-20827.16084235798,87.64737740452448,7.172033230044179,18.081639156847555,11.221669483079129,0.0007254643760886985,2.7738475987086413e-08,0
2024-02-06 10:04:05.185259,-2.1655819416046143,7.032756805419922,-0.2225404530763626,0,7.5097e-05,-3.1901633814640324e-05,-9.976111325398141e-10,0.0007205816733446123,2.7359093696761547e-08,2.0506315485857456e-05,1.7069686678522719e-09,-17.115058474382046,91.81242944698403,-174.13274185850815,7.3619927793525894,-51395.88403966256,107.11505847438205,-1.8124294469840254,-95.86725814149186,7.3619927793525894,0.0007215789431344087,2.743043889391809e-08,0
2024-02-06 10:04:05.260230,-0.466617077589035,10.411542892456056,0.9475916028022766,0,7.4971e-05,-3.1735805276431116e-05,-9.936019738770764e-10,0.0007194826824636461,2.7268369642345624e-08,2.0460637263424722e-05,1.704387749829067e-09,-2.566124061520415,84.79963446874599,116.21675287839366,10.46498383869996,41389.21795557442,92.56612406152043,5.20036553125401,-26.21675287839367,10.46498383869996,0.0007204728512434405,2.733964457405868e-08,0
2024-02-06 10:04:05.334527,-0.7681235074996948,8.980584144592285,1.7970739603042605,0,7.4297e-05,-3.1319697699256214e-05,-9.723522693742698e-10,0.0007129475356521608,2.6785640658840597e-08,1.9535684968657818e-05,1.6909089892368551e-09,-4.8887000979597675,78.68419604901004,113.14332175224718,9.19077690511959,-17150.180136215055,94.88870009795977,11.315803950989967,-23.143321752247175,9.19077690511959,0.0007139024828669925,2.6856566937160337e-08,0
2024-02-06 10:04:05.425257,-1.9310768842697144,8.009063720703125,2.0291860103607178,0,9.073000000000001e-05,-5.349767771822958e-05,-1.6692542344920422e-09,0.0008525429773373605,3.964849345881901e-08,5.097415001762663e-05,2.2702530484016615e-09,-13.555930635777345,75.78264608099006,133.58087973636535,8.484795547323898,-7781.123749539195,103.55593063577734,14.217353919009934,-43.58087973636536,8.484795547323898,0.0008557393842160791,3.9748503017813895e-08,0
2024-02-06 10:04:05.500081,-1.1246668100357056,9.195945739746094,1.8521108627319336,0,7.4824e-05,-2.9195348117418563e-05,-1.0115966000211322e-09,0.0007157115370984078,2.717616530551134e-08,2.0106195985920757e-05,1.7049510566354488e-09,-6.972663691936654,78.61267563831194,121.26759509902064,9.44778323892964,12870.037576255501,96.97266369193666,11.387324361688057,-31.267595099020635,9.44778323892964,0.0007165888861854383,2.7248378786620954e-08,0
2024-02-06 10:04:05.575046,-1.454888105392456,8.803508758544922,2.053115129470825,0,7.4965e-05,-2.9377206738956246e-05,-1.0157259651385065e-09,0.0007169804986405373,2.7277170094030932e-08,2.0381514418371046e-05,1.7078054402189513e-09,-9.384014850167526,76.87237794840628,125.32232866851493,9.156077085512747,-3891.2312868257586,99.38401485016753,13.127622051593718,-35.32232866851491,9.156077085512747,0.0007178714800273118,2.734944801996182e-08,0
2024-02-06 10:04:05.650263,-1.983720779418945,9.361056327819824,2.2397620677948,0,7.521700000000001e-05,-2.98104714584425e-05,-1.0231836125913791e-09,0.0007192692338414193,2.7458137560323667e-08,2.0922416945226538e-05,1.7130097355707648e-09,-11.96466469889297,76.54415630130809,131.53078903608377,9.827566220771372,8927.35864576658,101.96466469889297,13.455843698691906,-41.53078903608377,9.827566220771372,0.0007201906986973845,2.7530539866499044e-08,0
2024-02-06 10:04:05.725289,0.4402951002120971,12.14400863647461,3.670721054077149,0,7.5026e-05,-2.9663074306078238e-05,-1.017503888970867e-09,0.0007172155001373291,2.7320953268228688e-08,2.0357965807087732e-05,1.7090674590179185e-09,2.076415351681034,73.18171743080565,83.16017213629773,12.694289999637078,38209.73767581514,87.92358464831898,16.81828256919436,6.8398278637022765,12.694289999637078,0.0007181172734215003,2.7393260361415187e-08,0
2024-02-06 10:04:05.800187,0.1363957673311233,11.16291618347168,1.6391420364379885,0,7.4898e-05,-2.9699982521601003e-05,-1.0137046533338956e-09,0.0007157238569488526,2.7229245149375174e-08,2.0018134569294774e-05,1.70648338859383e-09,0.7000422477655417,81.64648990432724,85.2432803671263,11.283443097750697,-18836.910223055114,89.29995775223446,8.353510095672764,4.7567196328737005,11.283443097750697,0.0007166194625316559,2.730149215857091e-08,0
2024-02-06 10:04:05.875249,1.0887731313705444,6.5374250411987305,0.1148595884442329,0,7.506200000000001e-05,-2.9599518671907462e-05,-1.0185672124317635e-09,0.0007171752849292756,2.7346742879009186e-08,2.0161962702535124e-05,1.7097781565701203e-09,9.455519690373766,88.99344274223044,6.022115898343901,6.628464816678461,-62015.111255658456,80.54448030962624,1.006557257769565,83.9778841016561,6.628464816678461,0.0007180689559917032,2.741906574997706e-08,0
2024-02-06 10:04:05.950247,0.7513731122016907,9.8444242477417,0.0765730589628219,0,7.499799999999999e-05,-2.965840335170179e-05,-1.0166709589270075e-09,0.0007166510657520294,2.730086043578737e-08,2.0155836857818095e-05,1.7084879869841887e-09,4.364623227221187,89.55434421403989,5.818971123450258,9.873353723868263,43266.339198242655,85.63537677277881,0.4456557859601233,84.18102887654975,9.873353723868263,0.0007175476490744923,2.7373153482467726e-08,0
2024-02-06 10:04:06.025287,0.3302213251590729,9.329948425292969,1.6032484769821167,0,7.504e-05,-2.9635689868517208e-05,-1.0179161348846325e-09,0.0007170537275781632,2.733096823644731e-08,2.0191113110072947e-05,1.7093352729335146e-09,2.027063038411499,80.24958169832024,78.36154038121565,9.472454244870336,-5342.4770655374,87.9729369615885,9.75041830167976,11.638459618784367,9.472454244870336,0.0007179498613387605,2.7403280918069736e-08,0
2024-02-06 10:04:06.100244,1.179703712463379,8.554646492004395,1.5003533363342283,0,7.4957e-05,-2.9698351757578542e-05,-1.0154537721571494e-09,0.0007163115168890953,2.7271483578801914e-08,2.006231363482031e-05,1.7076647557236013e-09,7.851686399786343,80.05237419116952,51.822599025525626,8.7649721954044,-9438.50540264333,82.14831360021365,9.947625808830486,38.17740097447438,8.7649721954044,0.0007172075555607703,2.7343757639911e-08,0
2024-02-06 10:04:06.190342,0.4881532490253448,9.509416580200195,2.0339717864990234,0,9.0098e-05,-1.707184063062815e-05,-1.3695275136320684e-09,0.0008530655063772202,3.915245233343956e-08,4.6818921977229464e-05,2.2139891499246247e-09,2.9386231942403755,77.92690664124089,76.50426617942605,9.736751949114982,10785.808272221155,87.06137680575962,12.073093358759111,13.495733820573943,9.736751949114982,0.0008545198753500416,3.92389076974479e-08,0
2024-02-06 10:04:06.265197,0.0741801485419273,9.076300621032717,1.8880045413970947,0,7.4855e-05,-2.1357664620187114e-05,-1.0766370393629797e-09,0.0007114144627280235,2.7228768248903944e-08,1.6927579394169194e-05,1.7281451897225098e-09,0.46826509857458215,78.24920553686978,87.74999248306992,9.270884359441263,-6223.600155951092,89.53173490142542,11.75079446313022,2.250007516930081,9.270884359441263,0.0007119362545627078,2.7304788105088986e-08,0
2024-02-06 10:04:06.340197,0.0191432647407054,9.504631042480469,1.7683590650558472,0,7.5e-05,-2.1350898672724124e-05,-1.0797334102017157e-09,0.0007127615802736281,2.7332021012021558e-08,1.7192665755637018e-05,1.7306189074958706e-09,0.1153991972667447,79.46049222804972,89.3797722110815,9.667754211875346,5291.598032454441,89.88460080273325,10.539507771950285,0.6202277889185028,9.667754211875346,0.0007132885243322491,2.7408032374500656e-08,0
2024-02-06 10:04:06.415191,-0.1124666780233383,10.133965492248535,3.316570520401001,0,7.499400000000001e-05,-2.135061870248428e-05,-1.0796053056495903e-09,0.0007127026644840241,2.7327744619287294e-08,1.7177410966880682e-05,1.7305157972657032e-09,-0.6358420558260204,71.87813977423626,91.94218626248438,10.663467792821558,13277.243258743529,90.63584205582602,18.12186022576374,-1.9421862624843744,10.663467792821558,0.0007132292761301456,2.740375628481538e-08,0
2024-02-06 10:04:06.490226,-0.2488624453544616,12.4646577835083,2.2158329486846924,0,7.5035e-05,-2.135802594951352e-05,-1.0804808328649561e-09,0.0007131659362611771,2.735697492560257e-08,1.7290825237996924e-05,1.7312223961079031e-09,-1.1437838000389715,79.9198752797271,96.40809373688685,12.662525097039634,26641.66461275505,91.14378380003897,10.080124720272906,-6.408093736886844,12.662525097039634,0.000713695166407306,2.7432984651601836e-08,0
2024-02-06 10:04:06.565291,-1.619998812675476,7.171545505523682,0.4259376525878906,0,7.5065e-05,-2.1386058868383968e-05,-1.0811219941372245e-09,0.0007134604793105126,2.7378374321836143e-08,1.733045179701601e-05,1.7317417152634282e-09,-12.729050189124589,86.60104019687438,165.268935228955,7.364569503695308,-70578.24010316827,102.72905018912459,3.3989598031256305,-75.26893522895502,7.364569503695308,0.0007139912909912816,2.7454382794759154e-08,0
2024-02-06 10:04:06.640215,-0.4857603311538696,9.40173625946045,0.6771929860115051,0,7.4924e-05,-2.1237602848744e-05,-1.078117025986167e-09,0.0007122920629460812,2.7277858767607054e-08,1.7252681086994752e-05,1.7293036043951056e-09,-2.9576761046862825,85.8801856343599,125.65242170793547,9.438601492386425,27681.81075077568,92.95767610468629,4.1198143656400985,-35.65242170793547,9.438601492386425,0.0007128174196212062,2.735387369685347e-08,0
2024-02-06 10:04:06.714475,-0.5575475692749023,9.664956092834473,1.7157150506973269,0,7.426000000000001e-05,-2.0891224625801653e-05,-1.064130255264618e-09,0.0007059619210851194,2.68069984449087e-08,1.6458235618807428e-05,1.7181115800487794e-09,-3.301593577772201,79.9337654537706,108.00235469614725,9.831882510669656,5296.000784853634,93.30159357777221,10.066234546229392,-18.00235469614725,9.831882510669656,0.0007064627030553292,2.688306988100512e-08,0
2024-02-06 10:04:06.789499,-1.8951832056045528,8.06410026550293,2.093794584274292,0,7.502399999999999e-05,-2.182816778180558e-05,-1.0804490631643237e-09,0.000712734420614004,2.7348940447437752e-08,1.791346829936655e-05,1.7312415709455215e-09,-13.22535677145788,75.44489563358802,132.14959450744453,8.544320232530282,-17162.00520019426,103.22535677145788,14.555104366411994,-42.14959450744454,8.544320232530282,0.000713293569004518,2.7424972400215087e-08,0
2024-02-06 10:04:06.865194,-1.3304568529129028,9.174409866333008,2.2086541652679443,0,7.5695e-05,-2.29103700214382e-05,-1.0954588425973122e-09,0.0007185179407632351,2.7829125614679823e-08,1.9356939854837988e-05,1.7437457928812572e-09,-8.251411276831691,76.46414399574674,121.06406652150604,9.529851260890004,13019.763899329171,98.25141127683169,13.535856004253272,-31.06406652150604,9.529851260890004,0.0007191436625415695,2.7905212988680886e-08,0
2024-02-06 10:04:06.955179,-1.6534994840621948,8.892046928405762,2.361800193786621,0,8.9985e-05,-4.4230738049125275e-05,-1.5751820597614883e-09,0.0008476027745616436,3.901905812567608e-08,5.201283625028286e-05,2.2536828431523455e-09,-10.533984399992761,75.12521945000975,124.99591695339181,9.34776226035594,-2023.548375107662,100.53398439999276,14.874780549990245,-34.99591695339183,9.34776226035594,0.0008503482561678864,3.9115817540910504e-08,0
2024-02-06 10:04:07.030223,-1.3926725387573242,8.791543960571289,2.172760486602783,0,7.5044e-05,-2.147430995265205e-05,-1.0843324986642105e-09,0.0007154975088255405,2.7341917458632115e-08,1.81374006874338e-05,1.7296254981091331e-09,-9.001454429625316,76.11797429787421,122.65862042340589,9.162514400698567,-2468.5232617847296,99.00145442962531,13.882025702125787,-32.658620423405885,9.162514400698567,0.0007160494371390801,2.74180201992416e-08,0
2024-02-06 10:04:07.105217,0.5647262930870056,9.978426933288574,4.16605281829834,0,7.499400000000001e-05,-2.1453611296510298e-05,-1.0832593006329818e-09,0.0007150282595531941,2.7306154314422656e-08,1.797893035481131e-05,1.7287225898330772e-09,3.2391833048008314,67.33917240337715,82.28036500998368,10.827922974141169,22207.224223839254,86.76081669519917,22.660827596622852,7.719634990016316,10.827922974141169,0.0007155759298173988,2.7382256954971228e-08,0
2024-02-06 10:04:07.179510,-2.163188934326172,13.24713897705078,1.6391420364379885,0,7.4293e-05,-2.0893350140755966e-05,-1.0684166906492198e-09,0.0007068876987016201,2.680777277105434e-08,1.5944209558226212e-05,1.7168325292935574e-09,-9.274247872340633,82.94632774720124,142.84721277966156,13.522309864017583,36267.03578905703,99.27424787234064,7.053672252798764,-52.84721277966157,13.522309864017583,0.0007073761152839508,2.6883930313534535e-08,0
2024-02-06 10:04:07.255209,0.6365135312080383,8.413464546203613,1.1892752647399902,0,7.569900000000001e-05,-2.196660294914802e-05,-1.0985472376714225e-09,0.000722115102978468,2.781236174063545e-08,1.793258692095434e-05,1.7406479172184214e-09,4.3264220453253595,81.95432731753883,61.843808205898426,8.520910209652397,-66069.56042173853,85.67357795467464,8.04567268246118,28.15619179410157,8.520910209652397,0.0007226716621456846,2.788842280942174e-08,0
2024-02-06 10:04:07.330197,0.4020085632801056,7.66448450088501,0.0574297942221164,0,7.4988e-05,-2.2335797553738562e-05,-1.082797734292646e-09,0.0007163993920922279,2.7300969837637807e-08,1.74893832724933e-05,1.7280554068146505e-09,3.0024597857507134,89.57069216489998,8.130102279824026,7.675234962561177,-11277.47435711341,86.99754021424928,0.42930783510002735,81.86989772017598,7.675234962561177,0.0007169608464691272,2.7377026509429764e-08,0
2024-02-06 10:04:07.405217,-0.7848738431930542,10.847052574157717,0.5025107264518738,0,7.502e-05,-2.234192339821717e-05,-1.0835125778278773e-09,0.0007166955766854286,2.732389935713825e-08,1.7498342320824086e-05,1.7286152104241436e-09,-4.138610065159668,87.34755846335295,147.370842395419,10.887014904300875,42812.31593894558,94.13861006515968,2.652441536647048,-57.37084239541902,10.887014904300875,0.0007172572085141895,2.7399955951260963e-08,0
2024-02-06 10:04:07.480199,0.6508709788322449,8.961441040039062,0.9188767075538636,0,7.4982e-05,-2.2339377343794317e-05,-1.082663633113779e-09,0.0007163192153067588,2.72966720760904e-08,1.7471335959577977e-05,1.7279507865368159e-09,4.15410790400101,84.14553939175985,54.68878748844195,9.031909706638318,-24740.673730529415,85.84589209599899,5.8544606082401485,35.31121251155805,9.031909706638318,0.000716880403957321,2.7372728780535814e-08,0
2024-02-06 10:04:07.555183,0.260826975107193,9.648205757141112,0.9954497814178468,0,7.4984e-05,-2.2338465645840376e-05,-1.0827083109567688e-09,0.000716337824953556,2.7298104733130664e-08,1.7473250286066954e-05,1.7279857311230616e-09,1.5485413856878667,84.1093736949811,75.31747004030775,9.702928697584008,8948.82896278793,88.45145861431213,5.890626305018899,14.682529959692246,9.702928697584008,0.0007168990172835791,2.737416142997901e-08,0
2024-02-06 10:04:07.630234,0.3445787727832794,9.798958778381348,0.758551836013794,0,7.505100000000001e-05,-2.2318184553286043e-05,-1.0842043087384398e-09,0.0007169893049654961,2.734612119198296e-08,1.7532009340250925e-05,1.7291584073205434e-09,2.013966796660917,85.57347724016196,65.56966307209383,9.834313832646872,1750.611385096319,87.98603320333908,4.4265227598380426,24.43033692790617,9.834313832646872,0.0007175507899432391,2.742217774042233e-08,0
2024-02-06 10:04:07.719815,0.7848738431930542,9.552489280700684,0.5168681740760803,0,8.9581e-05,-1.4112711298217988e-05,-1.3488747670996162e-09,0.0008575775751147269,3.878534957576577e-08,2.6797935713553852e-05,2.0512154581364348e-09,4.697118022698325,86.90284761596989,33.366367703600346,9.598605686088101,-2631.2292401153277,85.30288197730168,3.0971523840301103,56.63363229639966,9.598605686088101,0.0008581122276942275,3.8862968102132525e-08,0
2024-02-06 10:04:07.795159,1.5793193578720093,9.507023811340332,0.5599405169487,0,7.534399999999999e-05,-3.094222059999965e-05,-1.0281512343821538e-09,0.0007219024311690328,2.754182115103482e-08,1.913267304649395e-05,1.7242584196780344e-09,9.431918024490443,86.62931227134591,19.521730834733138,9.653563319627736,729.4228278248421,80.56808197550956,3.3706877286540844,70.47826916526687,9.653563319627736,0.0007228185113300041,2.761488863591851e-08,0
2024-02-06 10:04:07.870022,1.4477094411849976,9.315590858459473,0.7920525670051575,0,7.4863e-05,-3.1670221026172835e-05,-1.0130929421710597e-09,0.0007173755923409462,2.7195674786380683e-08,1.8807518709803057e-05,1.7151338035606453e-09,8.833512343878386,85.14014882866778,28.68339609297881,9.460625927348007,-2577.2062604989014,81.16648765612162,4.859851171332224,61.31660390702119,9.460625927348007,0.0007183205873051319,2.7268530733432912e-08,0
2024-02-06 10:04:07.945537,1.0313433408737185,9.291662216186523,0.4498667120933532,0,7.5515e-05,-3.08620498192217e-05,-1.0334784624666582e-09,0.0007234415568432807,2.7665381177014734e-08,1.9212384394789167e-05,1.7275282919727422e-09,6.333713271464945,87.22812223284275,23.566584560216764,9.35954250405021,-1338.5873442070576,83.66628672853507,2.7718777671572643,66.43341543978325,9.35954250405021,0.0007243543801213651,2.7738524607510577e-08,0
2024-02-06 10:04:08.020186,0.2297191768884658,9.667348861694336,0.2895418703556061,0,7.4649e-05,-3.140808988941273e-05,-1.0065154919728195e-09,0.0007152323050465583,2.7042435394816434e-08,1.8892220478588767e-05,1.7110289980625694e-09,1.3612276786098778,88.2844759589094,51.57192180185246,9.674411579451338,4217.994553190625,88.63877232139012,1.715524041090609,38.42807819814754,9.674411579451338,0.0007161708136243239,2.7115198796074e-08,0
2024-02-06 10:04:08.095168,-1.5290682315826416,11.854466438293455,-0.3278284072875976,0,7.4982e-05,-3.1624431507019306e-05,-1.0170104067853255e-09,0.0007188156872940062,2.7281204385541138e-08,1.888584577018959e-05,1.717319046092991e-09,-7.3498105027102385,91.58407788174857,-167.8991193624846,11.957169215917533,30444.075064231358,97.34981050271024,-1.584077881748569,-102.1008806375154,11.957169215917533,0.0007197588291494257,2.7354115003034778e-08,0
2024-02-06 10:04:08.170164,-2.6537351608276367,8.92554759979248,-0.2919347882270813,0,7.4996e-05,-3.165371113076619e-05,-1.0174533537837901e-09,0.0007189611473922729,2.7291268823383945e-08,1.8881507427820988e-05,1.7175834175653772e-09,-16.55821547815112,91.87334952720843,-173.72219122621468,9.316272654906113,-35213.83221787056,106.55821547815113,-1.8733495272084302,-96.27780877378534,9.316272654906113,0.0007199052716925405,2.7364185683364118e-08,0
2024-02-06 10:04:08.245178,-2.383336544036865,9.959283828735352,-1.1198810338974,0,7.5014e-05,-3.169904477610997e-05,-1.018023528586952e-09,0.0007191311108751296,2.730421165370835e-08,1.8868801085421867e-05,1.7179231703419964e-09,-13.458239460021302,96.41572802531796,-154.83212970880209,10.301541680425032,13134.468572785336,103.4582394600213,-6.415728025317958,-115.16787029119791,10.301541680425032,0.0007200766735026326,2.7377136555061e-08,0
2024-02-06 10:04:08.320196,-2.177546262741089,10.196181297302246,-0.5671192407608032,0,7.5018e-05,-3.170816654172354e-05,-1.0181503430095878e-09,0.0007191714218053817,2.7307088258773716e-08,1.8865427084872543e-05,1.7179986387983371e-09,-12.055263840580995,93.18355392273733,-165.40219485796828,10.441525032631723,1865.9968568435752,102.05526384058099,-3.183553922737329,-104.59780514203175,10.441525032631723,0.0007201172446942974,2.7380014949162114e-08,0
2024-02-06 10:04:08.394677,-2.158403158187866,9.004512786865234,-0.2033971846103668,0,7.448100000000001e-05,-3.054396412220412e-05,-1.0014356459263233e-09,0.0007140160354437828,2.6922277426502318e-08,1.9072310745084703e-05,1.7078123561909936e-09,-13.479608619223333,91.29399769539492,-174.61662819668933,9.261820832687398,-15838.995179231282,103.47960861922334,-1.2939976953949168,-95.38337180331065,9.261820832687398,0.0007149234823757805,2.6994972091603406e-08,0
2024-02-06 10:04:08.485196,-2.069865465164185,9.377806663513184,-0.308685153722763,0,9.0519e-05,-6.445045021286422e-05,-1.7631958544792362e-09,0.0008614238551163673,3.955572990890416e-08,1.4965922473991335e-05,1.9807649483747642e-09,-12.446737641715089,91.88529936346262,-171.51782540654008,9.608479972724117,3829.6837132173237,102.44673764171509,-1.8852993634626096,-98.48217459345994,9.608479972724117,0.0008639611666803564,3.964452116028314e-08,0
2024-02-06 10:04:08.560158,-1.4692455530166626,9.535738945007324,-0.363722026348114,0,7.4962e-05,-3.692147515794449e-05,-9.746743329824005e-10,0.0007143048406004905,2.729892424927058e-08,2.019624172417265e-05,1.7072560541593457e-09,-8.759126549177786,92.18437600303125,-166.09557173604668,9.65511747390157,622.1485709753211,98.7591265491778,-2.1843760030312462,-103.90442826395335,9.65511747390157,0.0007155434919087114,2.7369617798888822e-08,0
2024-02-06 10:04:08.635189,-1.433351993560791,9.363449096679688,-0.1675035655498504,0,7.503100000000001e-05,-3.7021614773301416e-05,-9.772253695850285e-10,0.0007149568625879287,2.7348233778030582e-08,2.017791444125217e-05,1.7086489625470529e-09,-8.7032462546597,91.02485993015706,-173.33456585780402,9.474003080431643,-2413.8608504474946,98.7032462546597,-1.024859930157054,-96.66543414219599,9.474003080431643,0.0007161990390619047,2.741897776136059e-08,0
2024-02-06 10:04:08.710152,-0.1579319387674331,9.64341926574707,-0.0813588723540306,0,7.496300000000001e-05,-3.6967511119602256e-05,-9.747097393046698e-10,0.0007143106290636062,2.729963868331443e-08,2.0186375764140902e-05,1.7072765766800694e-09,-0.9382589744665635,90.48337724290245,-152.74467311385348,9.64505556740734,2281.82552693591,90.93825897446656,-0.48337724290244233,-117.25532688614655,9.64505556740734,0.0007155513688325345,2.7370332928641795e-08,0
2024-02-06 10:04:08.785209,0.2536482512950897,9.116979598999023,0.3661149442195892,0,7.5057e-05,-3.6963012452913455e-05,-9.781844739125776e-10,0.0007151923678102492,2.7366825324167493e-08,2.0199759299518582e-05,1.7091747250280611e-09,1.5936447126686193,87.70038137347554,55.285379107788174,9.127852682659288,-6890.801454202165,88.40635528733138,2.299618626524466,34.714620892211826,9.127852682659288,0.0007164317256650374,2.7437588294694808e-08,0
2024-02-06 10:04:08.860116,-0.3948298394680023,10.959519386291504,1.2897775173187256,0,7.4907e-05,-3.695242383380049e-05,-9.726408161910744e-10,0.0007136866303863525,2.7259659399302754e-08,2.0075567364903218e-05,1.7061540755282297e-09,-2.0632569070419047,83.2879856040335,107.02052509274539,11.042213628834324,25556.502678989084,92.0632569070419,6.712014395966507,-17.02052509274539,11.042213628834324,0.0007149245529595705,2.733031325200568e-08,0
2024-02-06 10:04:08.935195,0.5120823383331299,9.681706428527832,1.1629533767700195,0,7.5079e-05,-3.6942340118898086e-05,-9.789957658910064e-10,0.0007154617758064269,2.7382566162235332e-08,2.0286502221794847e-05,1.7096252135126857e-09,3.0276524851224798,83.15052579410994,66.23470466060223,9.764739026004262,-17015.072161723798,86.97234751487753,6.849474205890069,23.765295339397763,9.764739026004262,0.0007167020519755341,2.7453345528541805e-08,0
2024-02-06 10:04:09.010133,0.3709007501602173,8.643183708190918,0.1340028494596481,0,7.4938e-05,-3.700459042663686e-05,-9.737825072875463e-10,0.0007141698710517883,2.728177713113183e-08,2.019506680784566e-05,1.7067712628960961e-09,2.457198438171034,89.11176449633915,19.864297101276552,8.65217595427125,-14846.447352918574,87.54280156182898,0.8882355036608471,70.13570289872345,8.65217595427125,0.0007154130171824835,2.7352452978628718e-08,0
2024-02-06 10:04:09.085093,1.246705174446106,8.705399513244629,-0.5790837407112122,0,7.496e-05,-3.69867967614662e-05,-9.745964125466152e-10,0.0007143607054672241,2.7297490967473535e-08,2.0190170918041894e-05,1.7072155005110808e-09,8.14994592259535,93.80571225784837,-24.914459647693814,8.813262304955334,2148.9641233202187,81.85005407740466,-3.8057122578483633,114.91445964769383,8.813262304955334,0.0007156024620220391,2.736818291468824e-08,0
2024-02-06 10:04:09.160113,1.9215052127838133,9.492666244506836,-1.4692455530166626,0,7.502e-05,-3.6891750449849306e-05,-9.768127689629546e-10,0.0007149066474399565,2.7340368988060747e-08,2.0128721039230063e-05,1.7084250672697988e-09,11.443191415359951,98.79825035855212,-37.402707589788164,9.795998019978063,13099.649627069168,78.55680858464005,-8.798250358552123,127.40270758978818,9.795998019978063,0.0007161408249888897,2.7411104607428697e-08,0
2024-02-06 10:04:09.250171,0.1794681102037429,9.203125,-1.5338541269302368,0,9.0058e-05,-2.109453203430587e-05,-1.4128116269613173e-09,0.0008554803018074034,3.9148108459451643e-08,-2.451585454290676e-06,1.841339449732958e-09,1.1171707571616036,99.46232196732515,-83.3264690636329,9.331796560732881,-5154.472220626502,88.8828292428384,-9.46232196732515,173.32646906363289,9.331796560732881,0.0008557438497199219,3.921684540622064e-08,0
2024-02-06 10:04:09.325207,-2.9672060012817383,9.138516426086426,-0.4115802049636841,0,7.5036e-05,-1.5583273441906003e-07,-1.2532001371834243e-09,0.0007177162330560683,2.7331829286092112e-08,1.2160571812564557e-05,1.768415253195963e-09,-17.988214990226524,92.57874280262801,-172.10291094502557,9.616974170133334,3800.543864284514,107.98821499022652,-2.5787428026280135,-97.89708905497442,9.616974170133334,0.0007178192634520491,2.7417634748746202e-08,0
2024-02-06 10:04:09.400176,-1.6606782674789429,10.08610725402832,-3.840617418289185,0,7.496899999999999e-05,-7.986114155508677e-10,-1.2531948900333389e-09,0.0007170722081627843,2.7283763873311273e-08,1.2303020432943553e-05,1.7675957228557382e-09,-9.349865880573944,110.84597889366361,-113.38359641730317,10.919604113771975,17375.58115539277,99.34986588057394,-20.84597889366361,-156.61640358269682,10.919604113771975,0.0007171777436813434,2.7369666844272492e-08,0
2024-02-06 10:04:09.475203,-1.0935590267181396,10.777658462524414,-2.924133777618408,0,7.5027e-05,-8.067149294727343e-08,-1.2531972526663653e-09,0.0007176772573685644,2.7325371607811686e-08,1.2106842648262215e-05,1.7683036088850932e-09,-5.793708849547503,105.17974361377871,-110.50464497389632,11.220710834396801,4013.3114828638536,95.7937088495475,-15.179743613778708,-159.49535502610368,11.220710834396801,0.0007177793727120224,2.7411189950680498e-08,0
2024-02-06 10:04:09.550210,-2.318727970123291,8.157423973083496,-2.479052782058716,0,7.500700000000001e-05,-4.654862297887679e-08,-1.253195980465206e-09,0.0007174879065442085,2.7311019956172565e-08,1.2160874513858958e-05,1.7680609317134722e-09,-15.867671785779965,106.90410161903583,-133.08609049644627,8.835483460020876,-31800.063652404766,105.86767178577998,-16.904101619035828,-136.91390950355373,8.835483460020876,0.0007175909594420118,2.7396867533901785e-08,0
2024-02-06 10:04:09.625198,-1.098344802856445,7.70037841796875,-3.027028799057007,0,7.4988e-05,-1.4086431635544424e-08,-1.2531954044321871e-09,0.0007173372574214934,2.729738911711488e-08,1.2213182288879597e-05,1.767829378173846e-09,-8.117638353611108,111.45985432730795,-109.94309239838745,8.346561713436328,-6519.999821098688,98.11763835361111,-21.459854327307955,-160.05690760161255,8.346561713436328,0.0007174412191288139,2.738326445190942e-08,0
2024-02-06 10:04:09.700166,-2.0339717864990234,8.169387817382812,-4.371842861175537,0,7.4968e-05,1.7236734257994045e-08,-1.2531954359352133e-09,0.0007171785597591399,2.728304395894308e-08,1.2287171005481884e-05,1.7675843746409024e-09,-13.98094637012241,118.15343523053303,-114.94990112108056,9.486250499638318,15202.336813066777,103.98094637012241,-28.15343523053304,-155.05009887891944,9.486250499638318,0.0007172838081586794,2.7368948481586645e-08,0
2024-02-06 10:04:09.775196,0.1172524988651275,9.009299278259276,-4.02726411819458,0,7.503e-05,-4.218156365865713e-08,-1.2531962092249248e-09,0.0007177110990591049,2.7327525538366444e-08,1.2026798689121409e-05,1.7683381077014352e-09,0.7456400160462898,114.08521226738499,-88.3323229204704,9.869147780402866,5103.255774550812,89.25435998395372,-24.085212267384986,178.3323229204704,9.869147780402866,0.0007178118607118589,2.74133393159614e-08,0
2024-02-06 10:04:09.849989,0.6604426503181458,8.15024471282959,-4.800173759460449,0,7.4793e-05,-1.3433843883687683e-07,-1.253175291604629e-09,0.0007156776930961608,2.7157668966496043e-08,1.307285007762355e-05,1.7653637993225759e-09,4.632753597655685,120.49641295400055,-82.16601791564342,9.481789994214099,-5179.064701091909,85.36724640234432,-30.496412954000547,172.16601791564344,9.481789994214099,0.0007157970926536449,2.7243823912021403e-08,0
2024-02-06 10:04:09.925200,0.3254354894161224,7.82241678237915,-5.431901454925537,0,7.5211e-05,7.171009236758275e-08,-1.253188380929041e-09,0.0007190159793486594,2.7457519944037006e-08,1.0934346357816906e-05,1.7703813033775828e-09,2.382298738712832,124.77618866973837,-86.57139981323826,9.528990817029927,627.5787160897747,87.61770126128718,-34.776188669738374,176.57139981323826,9.528990817029927,0.0007190991194761135,2.7543059607723948e-08,0
2024-02-06 10:04:10.000213,0.6436922550201416,7.721914291381836,-4.467559337615967,0,7.5013e-05,-2.423355433160763e-08,-1.2531930811063065e-09,0.000717477090572357,2.7315307130114824e-08,1.1914392976278517e-05,1.7681192781835074e-09,4.765110991540055,120.0517825945971,-81.80116694520834,8.94434941612522,-7793.867741654198,85.23488900845994,-30.05178259459709,171.80116694520834,8.94434941612522,0.0007175760091052603,2.740114490843254e-08,0
2024-02-06 10:04:10.089407,0.600619912147522,7.487409591674805,-5.604190826416016,0,8.9194e-05,8.798561866970714e-06,-1.1909787062055389e-09,0.0008253188015651702,3.8254501403315966e-08,-5.949935156179028e-05,1.4307181293329363e-09,4.586293237074234,126.81419072694585,-83.8827690825924,9.371712836576748,4791.392026947188,85.41370676292577,-36.81419072694586,173.88276908259243,9.371712836576748,0.0008275075297205272,3.8299768436121645e-08,0
2024-02-06 10:04:10.164430,0.4642241597175598,6.781501770019531,-6.838931560516357,0,7.5023e-05,1.2536091957706794e-06,-1.262203364270593e-09,0.000724216430111885,2.7275269519268196e-08,2.8666392110819033e-05,1.649185063522793e-09,3.9160433893276103,135.24158299771358,-86.11674046957494,9.64236771839107,3607.625419062441,86.0839566106724,-45.24158299771358,176.11674046957492,9.64236771839107,0.0007247846378177933,2.7354218980903902e-08,0
2024-02-06 10:04:10.240168,0.3469716608524322,6.278990745544434,-6.463244915008545,0,7.5738e-05,1.54361170162445e-06,-1.2612033577997742e-09,0.0007288855561861991,2.779475347936976e-08,2.3910864020818908e-05,1.6679814325898533e-09,3.1628990313751078,135.82844571687374,-86.92709355041151,9.017740789546524,-8247.206538917655,86.8371009686249,-45.82844571687374,176.9270935504115,9.017740789546524,0.0007292792785841184,2.7873304736757124e-08,0
2024-02-06 10:04:10.315186,0.5431901216506958,6.140202045440674,-6.867646217346191,0,7.5018e-05,1.223153459923327e-06,-1.2621993932579315e-09,0.0007244146467814444,2.7271565406301414e-08,2.8709984828466565e-05,1.6490379270041106e-09,5.05548390070767,138.2008454759828,-85.47765806346986,9.228309771226916,2806.91276334203,84.94451609929233,-48.200845475982796,175.47765806346987,9.228309771226916,0.0007249843721106837,2.735051650523651e-08,0
2024-02-06 10:04:10.390162,0.7705163955688477,6.422565460205078,-6.707321166992188,0,7.4976e-05,1.1955656230617095e-06,-1.2622501863586743e-09,0.0007241508286638258,2.7241145531317055e-08,2.8995059143537743e-05,1.6478261210806982e-09,6.841089639179363,136.2424130838598,-83.44676362926229,9.318326021536333,1200.6008630683978,83.15891036082064,-46.242413083859766,173.4467636292623,9.318326021536333,0.0007247320646186437,2.732011376836988e-08,0
2024-02-06 10:04:10.465150,-0.1651106625795364,7.027971267700195,-6.937040328979492,0,7.4988e-05,1.1991980574596451e-06,-1.2622358177765912e-09,0.0007242315318841932,2.7249835825480342e-08,2.8913192974561917e-05,1.6481735705934068e-09,-1.345822836110456,134.62693297088703,-91.36345730722446,9.876343969121612,7441.429929925844,91.34582283611046,-44.626932970887026,-178.63654269277555,9.876343969121612,0.0007248094388039455,2.7328799239888176e-08,0
2024-02-06 10:04:10.540159,-0.4139730930328369,7.209832191467285,-7.523303031921387,0,7.5009e-05,1.1931176780257136e-06,-1.2622106984613685e-09,0.0007243810288205145,2.7265046257367746e-08,2.876135936927242e-05,1.6487791533930172e-09,-3.2861925619865446,136.21887476188812,-93.14954956017353,10.428477475690814,7360.896779975765,93.28619256198655,-46.2188747618881,-176.8504504398265,10.428477475690814,0.0007249527669011472,2.734400109640827e-08,0
2024-02-06 10:04:10.614941,-0.98109233379364,7.788915634155273,-7.518517017364502,0,7.4782e-05,1.351457603970516e-06,-1.2624995077558752e-09,0.0007226786709423064,2.7100804981444668e-08,3.046860594486634e-05,1.6420565523298625e-09,-7.17917143747759,133.98800218444782,-97.43452660205584,10.870043563105748,5904.710858427614,97.17917143747759,-43.98800218444783,-172.56547339794417,10.870043563105748,0.0007233219364991064,2.7179843365450607e-08,0
2024-02-06 10:04:10.690127,-0.4379021823406219,8.200495719909668,-7.470659255981445,0,7.518600000000001e-05,1.0648207117113916e-06,-1.2620114195361074e-09,0.0007259085320358275,2.7393419596446254e-08,2.744079233765042e-05,1.6537542507829311e-09,-3.0566615035739626,132.33354970789532,-93.35462639652783,11.10183039379258,3082.8456186900844,93.05666150357396,-42.333549707895315,-176.64537360347217,11.10183039379258,0.0007264277856811896,2.7472295374285487e-08,0
2024-02-06 10:04:10.780202,-0.6604426503181458,8.68864917755127,-8.028206825256348,0,9.007500000000001e-05,-7.1118073950168035e-06,-1.3070282118999746e-09,0.0008516397712249755,3.91374779400713e-08,-8.794051620412431e-05,1.2033640564589661e-09,-4.346814832790765,132.73755962118565,-94.7028631998597,11.848245180363808,8286.592135123257,94.34681483279077,-42.73755962118567,-175.2971368001403,11.848245180363808,0.000856197647816671,3.917778180689468e-08,0
2024-02-06 10:04:10.855172,-0.7250511646270752,9.076300621032717,-7.762593746185303,0,7.497e-05,3.352134642356987e-06,-1.2786332834355113e-09,0.0007174699878711699,2.7286776484497654e-08,3.131950511168885e-05,1.6309942427345853e-09,-4.56731694007409,130.53903585842383,-95.3361278518643,11.96506555865872,1558.2283352662723,94.5673169400741,-40.539035858423816,-174.6638721481357,11.96506555865872,0.0007181610764326889,2.736536526721828e-08,0
2024-02-06 10:04:10.930207,-0.6819788217544556,9.641026496887209,-8.832223892211914,0,7.5035e-05,3.306406167799582e-06,-1.2784168808591813e-09,0.0007180783010025024,2.7333431803886054e-08,3.078017353844088e-05,1.6330124822907148e-09,-4.046200912181114,132.49305625859373,-94.4153238751412,13.092847891469672,15030.083731737881,94.0462009121811,-42.49305625859372,-175.58467612485882,13.092847891469672,0.0007187452940892507,2.7411996893080824e-08,0
2024-02-06 10:04:11.005144,-0.0789659693837165,11.124629974365234,-3.244783401489258,0,7.4937e-05,3.3436924625653515e-06,-1.278742735692069e-09,0.000717060783835411,2.7263109988729e-08,3.1371946895832226e-05,1.6299670283894354e-09,-0.4066958446862231,106.26067774503278,-91.39409116912582,11.58845317604754,-20075.459591685438,90.40669584468623,-16.260677745032787,-178.6059088308742,11.58845317604754,0.0007177545172591903,2.7341710658904588e-08,0
2024-02-06 10:04:11.080011,-0.1411815732717514,7.133258819580078,-2.696807384490967,0,7.4867e-05,3.3513976265582933e-06,-1.2789770638451884e-09,0.0007164217577276229,2.7212938099774288e-08,3.157990257334155e-05,1.627763713658014e-09,-1.1338509528236824,110.7096531306869,-92.99677708499568,7.627324805775185,-52908.86999976432,91.13385095282369,-20.7096531306869,-177.0032229150043,7.627324805775185,0.0007171252729182885,2.7291562744912408e-08,0
2024-02-06 10:04:11.155131,-0.6054057478904724,9.143301963806152,-2.3976938724517822,0,7.512000000000001e-05,3.2569543304312673e-06,-1.2781411073226292e-09,0.0007184807426667214,2.739445326607418e-08,3.093544816433826e-05,1.635671905526331e-09,-3.7881977258890305,104.69409886001091,-104.17070900785625,9.47182257154942,24554.01711627044,93.78819772588903,-14.694098860010913,-165.82929099214377,9.47182257154942,0.0007191537994668195,2.7472989226144986e-08,0
2024-02-06 10:04:11.230136,-0.6819788217544556,10.019105911254885,-0.8111958503723145,0,7.5005e-05,3.330978943185856e-06,-1.2785199134858622e-09,0.0007173789042139053,2.731189133637854e-08,3.1119959323400664e-05,1.6321037195957858e-09,-3.893993006821803,94.62884982710248,-130.05403384580399,10.074999607043438,8041.824351630119,93.8939930068218,-4.628849827102491,-139.94596615419604,10.074999607043438,0.0007180613062268106,2.7390468854892708e-08,0
2024-02-06 10:04:11.305163,-0.3804723918437958,8.691041946411133,0.1483602970838546,0,7.5027e-05,3.319291979836278e-06,-1.278446760505709e-09,0.0007175847158403395,2.7327675936199133e-08,3.111266813231449e-05,1.6327882784977985e-09,-2.5066674831273144,89.02202826900998,158.6973450922966,8.700631019241303,-18318.31990886127,92.50666748312732,0.9779717309900208,-68.69734509229657,8.700631019241303,0.0007182665523503234,2.740624556110823e-08,0
2024-02-06 10:04:11.380163,-0.7609447836875916,9.727170944213867,1.49317467212677,0,7.5e-05,3.334701111705955e-06,-1.2785365894124448e-09,0.000717336069966316,2.730830450559074e-08,3.109050741023015e-05,1.631948535627974e-09,-4.47306949479466,81.2729029663891,117.00409066784411,9.870484392534175,15598.044977238294,94.47306949479467,8.727097033610908,-27.0040906678441,9.870484392534175,0.0007180172540804639,2.7386883846167532e-08,0
2024-02-06 10:04:11.455133,-0.8231604099273682,8.726935386657715,2.148831367492676,0,7.497e-05,3.3584626896101777e-06,-1.2786369868694645e-09,0.000717059258371353,2.7286788575665677e-08,3.103587731963586e-05,1.631016639857026e-09,-5.388430767965603,76.16724704589667,110.9605136086255,9.025213047307574,-11274.794520829684,95.38843076796562,13.832752954103327,-20.960513608625504,9.025213047307574,0.0007177384516442683,2.7365378831595956e-08,0
2024-02-06 10:04:11.545125,-0.9906639456748962,8.935118675231934,2.971991777420044,0,8.9992e-05,-1.0265172045318436e-05,-1.3305132808401892e-09,0.0008497189464302062,3.905485967193019e-08,6.949837996107532e-05,2.386129446292448e-09,-6.326718382401742,71.60188563977768,108.43494916764988,9.468394579800261,4924.676998985325,96.32671838240174,18.39811436022233,-18.434949167649876,9.468394579800261,0.0008526181363874414,3.9150299402675264e-08,0
2024-02-06 10:04:11.619809,-0.4785816073417663,9.040407180786133,3.2974274158477783,0,7.4684e-05,9.804334174710964e-07,-1.2594478913826458e-09,0.0007121342715282439,2.710043514167622e-08,2.1512245455803415e-05,1.6895341193516585e-09,-3.0302987184356764,69.96090064076165,98.25812404989802,9.634886087135637,2229.2794619379797,93.03029871843569,20.039099359238353,-8.25812404989801,9.634886087135637,0.0007124597944019715,2.7182242722037505e-08,0
2024-02-06 10:04:11.694589,-0.6389064788818359,9.394556999206545,3.972227334976196,0,7.478e-05,9.26793989332367e-07,-1.2593563444671191e-09,0.0007130191498088835,2.71688425059004e-08,2.1861188883842943e-05,1.6916160441999615e-09,-3.8905894415370756,67.08027911924235,99.13738677339411,10.219808838761612,7821.914303636995,93.89058944153709,22.919720880757648,-9.137386773394113,10.219808838761612,0.0007133548054935194,2.7250569651913053e-08,0
2024-02-06 10:04:11.769399,-0.7537660598754883,8.50678825378418,4.407736778259277,0,7.481e-05,9.059039012510085e-07,-1.2593288539987603e-09,0.0007132876699876783,2.7190237108197345e-08,2.1986888345541468e-05,1.6922737653584022e-09,-5.063616933704076,62.60936260662641,99.70426650704906,9.61050223319053,-8144.721368414403,95.06361693370408,27.39063739337359,-9.704266507049054,9.61050223319053,0.0007136270342955406,2.7271939675414108e-08,0
2024-02-06 10:04:11.844415,-0.7178724408149719,8.860939025878906,3.716186285018921,0,7.5016e-05,7.543251356798879e-07,-1.2591578504079563e-09,0.0007150765458974837,2.733735862243352e-08,2.282365242105914e-05,1.6968892510573621e-09,-4.631724231099909,67.24732651133823,100.93341276696857,9.63543573309418,332.3757585535073,94.63172423109991,22.752673488661774,-10.93341276696857,9.63543573309418,0.0007154410909424505,2.741890019811404e-08,0
2024-02-06 10:04:11.920091,-0.7011220455169678,9.12415885925293,3.153852939605713,0,7.5676e-05,2.860569551903498e-07,-1.2588145243179692e-09,0.0007210116281995772,2.781126771988555e-08,2.509076536518526e-05,1.7127010089268227e-09,-4.394108701865323,70.93180090263428,102.5334097926777,9.679288991256188,579.4869993393902,94.39410870186533,19.06819909736573,-12.533409792677695,9.679288991256188,0.0007214481244928133,2.7892374781286746e-08,0
2024-02-06 10:04:11.995137,-0.8734114766120911,9.088264465332031,2.5460541248321533,0,7.5046e-05,7.820350146610026e-07,-1.2591509732884724e-09,0.0007152747148523329,2.7358837521824197e-08,2.3295294639887334e-05,1.697459400025225e-09,-5.489450433940359,74.34991971314005,108.93428195099636,9.478490924502141,-2675.6664812787694,95.48945043394036,15.650080286859954,-18.93428195099636,9.478490924502141,0.0007156543858862387,2.7440350218862784e-08,0
2024-02-06 10:04:12.070157,-0.6556568145751953,9.301233291625977,2.1464385986328125,0,7.502e-05,8.019129024464395e-07,-1.2591715646113948e-09,0.0007150356513814924,2.7340243487063155e-08,2.3234292234482285e-05,1.696854515395858e-09,-4.032188968345409,77.0053823499882,106.98595442639112,9.568177739854704,1195.5054032599671,94.03218896834541,12.99461765001181,-16.985954426391118,9.568177739854704,0.0007154134875346534,2.7421774964568658e-08,0
2024-02-06 10:04:12.145108,-0.8734114766120911,9.53334617614746,2.3282995223999023,0,7.495100000000001e-05,8.546657584923923e-07,-1.2592287165751973e-09,0.0007143858583898543,2.7290928444976053e-08,2.307991376930668e-05,1.6952566752887276e-09,-5.234623680032948,76.2754942168021,110.56249908418536,9.852335539746436,3791.2476136640194,95.23462368003295,13.724505783197907,-20.56249908418536,9.852335539746436,0.0007147590975570485,2.7372510435554895e-08,0
2024-02-06 10:04:12.234993,-0.6867645978927612,9.473523139953612,2.457516670227051,0,8.988500000000001e-05,-1.0795168989835344e-05,-1.3334544542036353e-09,0.000856310151573181,3.901931555137004e-08,5.881560327965215e-05,2.3067705010933033e-09,-4.146292769799805,75.45750885361977,105.61327067644639,9.811150517681359,-458.19683000586684,94.1462927697998,14.542491146380225,-15.613270676446387,9.811150517681359,0.0008583955303646173,3.911018124508678e-08,0
2024-02-06 10:04:12.295172,-0.8016242384910583,9.480701446533203,2.4407663345336914,0,6.0179e-05,1.1311870396973535e-05,-1.3411290202038587e-09,0.0005747830537900922,1.7763288172109333e-08,-1.3938594190059183e-05,1.6402122850855787e-09,-4.833049397492671,75.56294970237076,108.18180272091253,9.822608698193477,190.40164363180398,94.83304939749267,14.437050297629241,-18.18180272091252,9.822608698193477,0.0005750633023799529,1.788919590351612e-08,0
2024-02-06 10:04:12.385133,-0.7226582169532776,9.353878021240234,2.464695453643799,0,8.9961e-05,-1.1386219647048074e-05,-1.3422361548867187e-09,0.0008552487766447065,3.905789215911392e-08,5.910863729769183e-05,2.3128393970013365e-09,-4.417759188206797,75.2384014575233,106.34134068250493,9.700102711517214,-1361.7677290855236,94.4177591882068,14.761598542476706,-16.341340682504924,9.700102711517214,0.0008573645356284035,3.914932648060218e-08,0
2024-02-06 10:04:12.460082,-0.6867645978927612,9.430450439453123,2.3498356342315674,0,7.4949e-05,-8.070919988137076e-07,-1.25071315767288e-09,0.0007142536072187422,2.7277207265834875e-08,2.2970766952099335e-05,1.6967513887024042e-09,-4.165164075240473,76.00823565202585,106.29156669666065,9.743036929613112,572.845776406591,94.16516407524048,13.991764347974156,-16.29156669666066,9.743036929613112,0.000714623343417249,2.73585322139393e-08,0
2024-02-06 10:04:12.534955,-0.667621374130249,9.413700103759766,2.134474039077759,0,7.4873e-05,-7.556253318768304e-07,-1.250653774414314e-09,0.0007135375294981001,2.7222951202639632e-08,2.2800363184513573e-05,1.6950120857572127e-09,-4.056635327145412,77.22469353301994,107.36865327617319,9.675714307802764,-899.1575308902807,94.05663532714541,12.775306466980052,-17.368653276173184,9.675714307802764,0.0007139021176136404,2.7304327001697337e-08,0
2024-02-06 10:04:12.610074,-0.5766908526420593,9.497451782226562,2.2852272987365723,0,7.511900000000001e-05,-9.08675735769831e-07,-1.2508584834456345e-09,0.0007158636011800765,2.7398767541713054e-08,2.334398644906476e-05,1.700687840762143e-09,-3.4747671110794287,76.47096533088182,104.1632219697049,9.785521268799654,1461.7734660590515,93.47476711107943,13.52903466911817,-14.163221969704894,9.785521268799654,0.0007162446948420871,2.7479982694356866e-08,0
2024-02-06 10:04:12.685125,-0.5479759573936462,9.339520454406738,2.227797508239746,0,7.505100000000001e-05,-8.70437064228617e-07,-1.2507979936104345e-09,0.0007152231441240309,2.7350110592372715e-08,2.3190543605627567e-05,1.6991056667402835e-09,-3.3578550743350393,76.58368889455555,103.8188303862491,9.617172230228725,-2243.1285202186345,93.35785507433505,13.416311105444448,-13.8188303862491,9.617172230228725,0.000715599542246969,2.7431368997966308e-08,0
2024-02-06 10:04:12.760126,-0.6030128598213196,9.437629699707031,1.847325086593628,0,7.5001e-05,-8.416623437982343e-07,-1.2507551911252339e-09,0.000714753715370178,2.731436117088535e-08,2.30886655407567e-05,1.6979486865116235e-09,-3.6559168728762295,78.92493079539351,108.07797060859599,9.635615643717856,245.90890106972546,93.65591687287623,11.075069204606496,-18.077970608595987,9.635615643717856,0.0007151270296300002,2.7395651926240458e-08,0
2024-02-06 10:04:12.835574,-0.5288326740264893,9.55727481842041,1.9813278913497925,0,7.5448e-05,-1.094629820613222e-06,-1.2511879524239799e-09,0.0007189990765299795,2.7634804919875037e-08,2.3944369481327064e-05,1.7084605698390594e-09,-3.1671176240110825,78.28786309035571,104.94433682967261,9.774805684256414,1844.8473191941262,93.16711762401108,11.71213690964429,-14.944336829672606,9.774805684256414,0.0007193985008986784,2.771582132592385e-08,0
2024-02-06 10:04:12.909994,-0.727444052696228,9.463951110839844,2.19668960571289,0,7.442e-05,-4.489035830777426e-07,-1.2503945762544828e-09,0.0007092221664023397,2.690069920100782e-08,2.1796868487836836e-05,1.684949573522909e-09,-4.395382007705787,76.93239998967047,108.32253083166376,9.742740410275585,-430.8690403228767,94.39538200770579,13.067600010329535,-18.322530831663762,9.742740410275585,0.000709557176206915,2.6982404621618597e-08,0
2024-02-06 10:04:12.985633,-0.5144752264022827,9.545310020446776,2.1536173820495605,0,7.5639e-05,-1.2058533836882869e-06,-1.2514031506257266e-09,0.000720808311061859,2.7772302777022252e-08,2.4448380596878056e-05,1.7131360528400429e-09,-3.085155404265308,77.28578342918664,103.43552242889983,9.79875992017813,740.6167440413574,93.08515540426531,12.71421657081336,-13.435522428899823,9.79875992017813,0.0007212238201086001,2.7853216089341178e-08,0
2024-02-06 10:04:13.074856,0.0957163274288177,9.81092357635498,2.0770442485809326,0,8.9223e-05,-4.050063825516061e-06,-1.2871013403106425e-09,0.0008522758496513365,3.845669039658628e-08,5.318303439212036e-05,2.24040862344532e-09,0.5589654799832423,78.04656313866394,87.36150810275984,10.028833224606819,2578.6322408873198,89.44103452001676,11.953436861336057,2.638491897240159,10.028833224606819,0.0008539431843296436,3.854339238986533e-08,0
2024-02-06 10:04:13.150107,-0.2440766245126724,9.858781814575195,2.416837215423584,0,7.5251e-05,-3.0136187900882524e-06,-1.2377544535580307e-09,0.0007148632877902984,2.750865638241902e-08,2.1788778484584822e-05,1.7166555386886579e-09,-1.4181979704023233,76.22582843015573,95.76675431916432,10.153632571247027,1658.4410391916058,91.41819797040233,13.774171569844277,-5.766754319164321,10.153632571247027,0.0007152016170258686,2.75899459639162e-08,0
2024-02-06 10:04:13.225174,-0.0813588723540306,9.475915908813477,2.5604116916656494,0,7.506699999999999e-05,-2.983678724376514e-06,-1.2372027021867e-09,0.0007130844955997465,2.737728518634713e-08,2.1330871585132586e-05,1.7126885308822436e-09,-0.4919213633155272,74.87963660417059,91.82000108505333,9.816074042499537,-4496.763274774399,90.49192136331553,15.120363395829427,-1.8200010850533215,9.816074042499537,0.0007134097043677332,2.7458691095984445e-08,0
2024-02-06 10:04:13.300163,0.4761887192726135,6.377099990844727,1.2802058458328247,0,7.4989e-05,-2.999077088406338e-06,-1.2369693747100016e-09,0.0007124662279796598,2.7321688708127536e-08,2.1181087501170154e-05,1.711030564477878e-09,4.27044629122339,78.64872831453586,69.59668039770469,6.521739568343621,-43930.90285449754,85.7295537087766,11.351271685464152,20.40331960229532,6.521739568343621,0.0007127873167661438,2.7403145671443845e-08,0
2024-02-06 10:04:13.375181,-0.0957163274288177,6.870038986206055,0.3015064299106598,0,7.5018e-05,-2.993560238724601e-06,-1.237056267951245e-09,0.0007126583114948271,2.7342353013949922e-08,2.120402232916844e-05,1.7116451485704182e-09,-0.7982177099088774,87.48706408898465,107.61257792458858,6.877318039367166,4739.908702225399,90.79821770990887,2.5129359110153455,-17.612577924588575,6.877318039367166,0.0007129799723053213,2.7423790869683906e-08,0
2024-02-06 10:04:13.450072,0.339792937040329,9.590775489807127,-1.6630711555480957,0,7.4891e-05,-3.009059103434933e-06,-1.236675101623018e-09,0.0007116130497756002,2.7251911782509246e-08,2.1290481689246424e-05,1.7089467475652486e-09,2.0290915463869372,99.83745019359405,-78.45245913365507,9.739827483295775,38222.34238998823,87.97090845361306,-9.837450193594055,168.45245913365508,9.739827483295775,0.000711937828506239,2.733343300967982e-08,0
2024-02-06 10:04:13.525170,-0.5647262930870056,11.277775764465332,-4.5010600090026855,0,7.509799999999999e-05,-3.0323397057857633e-06,-1.2373003863997722e-09,0.0007137729448304174,2.7399439232950965e-08,2.065249411371544e-05,1.7132878455608551e-09,-2.8666494718803133,111.75737900162133,-97.15125751200827,12.155932016275372,32172.688127241705,92.86664947188032,-21.757379001621327,-172.84874248799173,12.155932016275372,0.0007140781031295487,2.748082127171792e-08,0
2024-02-06 10:04:13.600134,-1.746822953224182,9.143301963806152,-7.870274543762207,0,7.496400000000001e-05,-2.8774659062829346e-06,-1.2369044294237637e-09,0.0007124047326226233,2.7303885328561626e-08,2.1481373528750577e-05,1.7104648764288104e-09,-10.815990787205223,130.7208624939535,-102.51405132243717,12.18985572619478,452.5333482659449,100.81599078720524,-40.72086249395349,-167.48594867756285,12.18985572619478,0.0007127343349957507,2.738535697587796e-08,0
2024-02-06 10:04:13.675180,-1.4883887767791748,10.337363243103027,-9.858781814575195,0,7.5046e-05,-3.0101095872130562e-06,-1.237145820018997e-09,0.0007132034398961064,2.7362335263634887e-08,2.075448221805883e-05,1.7121965465144293e-09,-8.193223323748835,133.64253474497212,-98.58516002267362,14.362171104610136,28946.451222121836,98.19322332374884,-43.64253474497211,-171.41483997732638,14.362171104610136,0.000713511706961775,2.744375225572195e-08,0
2024-02-06 10:04:13.750159,-0.8088029623031616,10.643654823303224,-8.633612632751465,0,7.4979e-05,-2.9331536639538005e-06,-1.2369467207000829e-09,0.0007125005757908819,2.7314574179109375e-08,2.1373977432044255e-05,1.7107852431161508e-09,-4.345509901176885,129.0472755488741,-95.35188958834013,13.728831608037956,-8446.891750652585,94.34550990117688,-39.04727554887408,-174.6481104116599,13.728831608037956,0.0007128271324830588,2.739603595274293e-08,0
2024-02-06 10:04:13.840157,-0.8518753051757812,9.121766090393066,-8.645576477050781,0,8.9998e-05,-1.5404017113586922e-05,-1.374649704654025e-09,0.0008609290041422842,3.913024360961749e-08,-0.0001083840931880157,1.057382778846683e-09,-5.335337547923648,133.46476055432046,-95.62736511878889,12.596757549621527,-12578.880179742087,95.33533754792366,-43.46476055432047,-174.37263488121113,12.596757549621527,0.0008678612478805869,3.916865692233418e-08,0
2024-02-06 10:04:13.914918,-1.0169858932495115,8.423036575317383,-6.659463405609131,0,7.4761e-05,-1.166098073383826e-06,-1.2484102821020883e-09,0.0007272639250335692,2.7030595778691244e-08,8.217353158028855e-06,1.820503087765138e-09,-6.8844893572483,128.33077838925718,-98.68272147027942,10.78565057411235,-24225.290933898395,96.8844893572483,-38.33077838925717,-171.3172785297206,10.78565057411235,0.0007273112822807533,2.7120580153750794e-08,0
2024-02-06 10:04:13.990125,-0.9763064980506896,7.927704334259033,-5.98944902420044,0,7.5207e-05,-1.610602276643773e-06,-1.2490294862801444e-09,0.0007309101402564048,2.735576859525091e-08,5.3966456861813075e-06,1.823539009507397e-09,-7.020695352941257,127.07136163806092,-99.25804004416995,9.983745289372173,-10662.64157246235,97.02069535294126,-37.07136163806091,-170.74195995583005,9.983745289372173,0.0007309318374198739,2.7444916553229096e-08,0
2024-02-06 10:04:14.065131,-0.3661149442195892,8.463715553283691,-5.278755187988281,0,7.5006e-05,-1.4756889216956144e-06,-1.2487193140147112e-09,0.0007292628025577068,2.7209021214498096e-08,6.529100209506237e-06,1.8223404720448804e-09,-2.4768994097593944,121.95147710831775,-93.96747001425318,9.981672077061557,-27.640619558654137,92.4768994097594,-31.951477108317732,-176.03252998574683,9.981672077061557,0.0007292935225282479,2.729855417732327e-08,0
2024-02-06 10:04:14.140145,-0.6412993669509888,8.66472053527832,-4.50584602355957,0,7.5014e-05,-1.479718578940292e-06,-1.2487311356447137e-09,0.0007293313163020609,2.721485559097353e-08,6.489961804660092e-06,1.822392548292937e-09,-4.2328975327766765,117.4754275848349,-98.10028060045171,9.787302755128868,-2591.1072857425083,94.23289753277668,-27.475427584834897,-171.8997193995483,9.787302755128868,0.000729361692242056,2.730437343882378e-08,0
2024-02-06 10:04:14.215128,-0.3493645787239074,8.805901527404785,-2.617841482162476,0,7.4983e-05,-1.4643632877823309e-06,-1.2486855023757795e-09,0.0007290605216600893,2.7192250517485118e-08,6.600378960998785e-06,1.8221896480110692e-09,-2.271956286848435,106.55629874473414,-97.60150417395593,9.193424353577262,-7920.173926778154,92.27195628684844,-16.55629874473413,-172.3984958260441,9.193424353577262,0.0007290918691122189,2.72818268963578e-08,0
2024-02-06 10:04:14.289993,-0.9428057670593262,8.595325469970703,-3.3046059608459477,0,7.4865e-05,-1.3881252373811194e-06,-1.2485172055527949e-09,0.0007280338492672441,2.7106281949600403e-08,6.949803360136286e-06,1.8213901872541223e-09,-6.259646567904337,111.03002872932313,-105.92347517429693,9.256831164366453,846.9486514284508,96.25964656790434,-21.03002872932313,-164.07652482570307,9.256831164366453,0.0007280683431775478,2.719608020575795e-08,0
2024-02-06 10:04:14.365134,-1.581712245941162,5.884160995483398,-2.431194543838501,0,7.5141e-05,-1.736508723175198e-06,-1.2489484050393516e-09,0.0007300320183994769,2.7307495039338417e-08,6.158262890489807e-06,1.8231991003967088e-09,-15.04592449655047,112.44924306031014,-123.04764828145012,6.560173104401934,-35887.97141326997,105.04592449655047,-22.449243060310135,-146.95235171854986,6.560173104401934,0.0007300600574971816,2.739677375899633e-08,0
2024-02-06 10:04:14.440247,-0.7489802241325378,5.766908645629883,-0.5814766883850098,0,7.5113e-05,-1.7038790285941579e-06,-1.2489002396108268e-09,0.0007298689034245013,2.7287056426432877e-08,6.200440287740946e-06,1.8230260785522135e-09,-7.39989802685916,95.75766692185361,-142.17574163826268,5.8443410100983595,-9530.069286322934,97.39989802685916,-5.75766692185361,-127.82425836173731,5.8443410100983595,0.0007298972289641809,2.7376388080075743e-08,0
2024-02-06 10:04:14.529844,-1.2562767267227173,7.78652286529541,-0.3517574965953827,0,8.959699999999999e-05,-1.6225949866687907e-05,-1.3787480604704595e-09,0.0008280228544266222,3.8569308536790704e-08,-5.580416798870524e-07,1.8638883292702915e-09,-9.16511490622286,92.58658798819427,-164.35775298821636,7.895055597162343,22888.2059339485,99.16511490622285,-2.586587988194263,-105.64224701178365,7.895055597162343,0.0008281820091697259,3.863892579930759e-08,0
2024-02-06 10:04:14.590119,-1.514710783958435,10.873373985290527,0.6365135312080383,0,6.0275e-05,2.4399498027408448e-05,-1.4985804500547833e-09,0.0005544501067001818,1.830087245371064e-08,-4.732849903343195e-06,1.94145809077203e-09,-7.930527916522223,86.64980100030652,157.20682339584346,10.996806811908796,51459.995267465,97.93052791652222,3.350198999693485,-67.20682339584347,10.996806811908796,0.0005550068974274465,1.8464477665249442e-08,0
2024-02-06 10:04:14.680116,-0.7059078812599182,10.162680625915527,1.0289504528045654,0,8.9997e-05,-8.601115956401495e-06,-1.2638006940975489e-09,0.000867066914277315,3.942603690245722e-08,2.0017610363068107e-05,2.168604915964002e-09,-3.973428293089289,84.2186220290991,124.4519350542146,10.239000072053443,-8420.355565800555,93.9734282930893,5.7813779709009046,-34.451935054214594,10.239000072053443,0.0008673406007761471,3.950585305128676e-08,0
2024-02-06 10:04:14.755139,-0.4881532490253448,8.356035232543945,1.1892752647399902,0,7.5023e-05,3.388197260442666e-07,-1.2019408822208642e-09,0.000728417288645029,2.7480646675177638e-08,3.4097544158120245e-06,1.9932042358645262e-09,-3.3433760624456466,81.89976247882935,112.31632574765567,8.454347642330076,-23788.07072129037,93.34337606244564,8.10023752117065,-22.316325747655664,8.454347642330076,0.0007284253480082625,2.7579040351255406e-08,0
2024-02-06 10:04:14.830121,-0.4283305406570434,8.982976913452148,1.770751953125,0,7.4982e-05,3.576076437327595e-07,-1.2019551589819446e-09,0.000728061838896036,2.745078885306304e-08,3.3490738578457795e-06,1.9930656798849162e-09,-2.7299366821106594,78.84865116877235,103.59818298608405,9.165855320654469,9489.046415464954,92.72993668211066,11.151348831227661,-13.598182986084048,9.165855320654469,0.0007280696295242712,2.7549279766701494e-08,0
2024-02-06 10:04:14.905139,-1.2514909505844116,9.664956092834473,1.746822953224182,0,7.5018e-05,3.273708568904039e-07,-1.2019428293689334e-09,0.0007283975016901493,2.7477005121193597e-08,3.4123902061600845e-06,1.9931873862380686e-09,-7.378033857504117,79.75508508351733,125.61926364507264,9.900959362896291,9799.035461380232,97.37803385750411,10.24491491648268,-35.61926364507262,9.900959362896291,0.0007284055683800392,2.7575410657900074e-08,0
2024-02-06 10:04:14.980120,-0.758551836013794,9.425664901733398,2.2014753818511963,0,7.4981e-05,3.6455664844247047e-07,-1.2019556300277821e-09,0.0007280443252017497,2.7450060947396098e-08,3.3393466869611902e-06,1.9930624791055456e-09,-4.601092228092539,76.85356333591747,109.01216966677633,9.709019187569137,-2559.850833239812,94.60109222809254,13.146436664082536,-19.012169666776334,9.709019187569137,0.0007280520747833336,2.7548554252409218e-08,0
2024-02-06 10:04:15.055129,-0.758551836013794,10.83269500732422,2.1464385986328125,0,7.5009e-05,3.433171970340891e-07,-1.2019457197939455e-09,0.0007283279422404765,2.7470450159140284e-08,3.4002174826879523e-06,1.9931568330039208e-09,-4.0055581790248915,78.79232900637953,109.46341846771027,11.069321599236684,18135.189266188685,94.0055581790249,11.207670993620464,-19.463418467710266,11.069321599236684,0.0007283359601131021,2.7568877010500294e-08,0
2024-02-06 10:04:15.130096,0.3948298394680023,11.610389709472656,2.050722122192383,0,7.4967e-05,3.509553589615502e-07,-1.2019602995176215e-09,0.0007278566374614237,2.7439870282966547e-08,3.312077107550629e-06,1.9930158748175258e-09,1.9476838946294794,79.98326322193438,79.10207431876591,11.796715688292743,9702.857111209716,88.05231610537052,10.01673677806563,10.897925681234096,11.796715688292743,0.0007278642577576404,2.7538396866646427e-08,0
2024-02-06 10:04:15.205105,0.1411815732717514,10.492901802062988,1.0026284456253052,0,7.5009e-05,3.622115986290843e-07,-1.2019453230115121e-09,0.000728320806583166,2.7470450009291483e-08,3.3761974694747963e-06,1.993156328583643e-09,0.7708659014726708,84.54178688812448,81.98479532383553,10.54164049208401,-16732.328070081356,89.22913409852733,5.458213111875526,8.015204676164467,10.54164049208401,0.0007283287219439781,2.756887680741935e-08,0
2024-02-06 10:04:15.279974,0.9763064980506896,6.721678733825684,0.2153617292642593,0,7.4869e-05,2.839874336365161e-07,-1.2019905569437706e-09,0.0007271157859456538,2.736856944781447e-08,3.2909381572325295e-06,1.9926896290897736e-09,8.264270979632427,88.16487831097092,12.43956211695429,6.795625067154025,-50034.26551616804,81.73572902036757,1.835121689029078,77.56043788304571,6.795625067154025,0.0007271232887854597,2.746732944566522e-08,0
2024-02-06 10:04:15.369972,0.7513731122016907,9.545310020446776,1.8999689817428589,0,8.9998e-05,1.3353019845390645e-05,-1.0988334153815698e-09,0.0008501674223773478,3.9299928277173815e-08,1.929235732064587e-05,2.1635209677321846e-09,4.500840673592068,78.74255878139414,68.42288806672292,9.76152585776252,32955.185566440305,85.49915932640793,11.257441218605868,21.577111933277077,9.76152585776252,0.0008504911194490642,3.937477137004838e-08,0
2024-02-06 10:04:15.445113,0.7968384027481079,9.576417922973633,2.0985803604125977,0,7.5141e-05,1.852130606586068e-06,-1.2117848755140787e-09,0.0007081216663496493,2.7724177781565318e-08,-1.0410866467555932e-05,2.097544812930006e-09,4.7565327695907165,77.63956591937105,69.20805281841305,9.835993656192253,991.040822317154,85.2434672304093,12.360434080628954,20.791947181586945,9.835993656192253,0.0007082006148558424,2.7829806871241747e-08,0
2024-02-06 10:04:15.520124,0.8590540289878845,8.779580116271973,1.7228938341140747,0,7.501099999999999e-05,1.7444975985232169e-06,-1.2120186563474109e-09,0.0007069285264770983,2.763219951903157e-08,-1.0659262290200192e-05,2.0989143712992604e-09,5.588420834885708,78.89743171497709,63.49864562776193,8.988179126296204,-11302.536026663403,84.4115791651143,11.102568285022913,26.501354372238062,8.988179126296204,0.0007070110357636039,2.7738292683958568e-08,0
2024-02-06 10:04:15.595200,0.5192610621452332,9.430450439453123,1.974149227142334,0,7.5076e-05,1.789292838985048e-06,-1.211903808158192e-09,0.0007075203524701594,2.767816910759736e-08,-1.0539108390709345e-05,2.0982254242521306e-09,3.1516474043229206,78.1765674737373,75.26327456676782,9.64884929474331,8800.018227490897,86.84835259567708,11.823432526262714,14.736725433232193,9.64884929474331,0.0007076011048140283,2.7784029691892482e-08,0
2024-02-06 10:04:15.670098,0.1698964685201645,9.32277011871338,1.9502201080322263,0,7.4898e-05,1.7279578187558286e-06,-1.2122168434667309e-09,0.0007058513158404826,2.7552379029117716e-08,-1.0888377261539875e-05,2.100132470475181e-09,1.0440323073510915,78.18473737770961,85.02115865240732,9.526083453663627,-1639.1070666731216,88.95596769264891,11.81526262229039,4.97884134759268,9.526083453663627,0.0007059374070492041,2.7658879518760234e-08,0
2024-02-06 10:04:15.745039,-0.016750356182456,9.36584186553955,2.584340810775757,0,7.4941e-05,1.7312504601710893e-06,-1.212142470488734e-09,0.000706253120998144,2.7582739274509745e-08,-1.0790884201785505e-05,2.0996663663537194e-09,-0.10247062732109186,74.57408502811202,90.37135631326811,9.715868044131039,2532.453402909107,90.1024706273211,15.42591497188799,-0.3713563132681039,9.715868044131039,0.0007063376751452743,2.7689084385445864e-08,0
2024-02-06 10:04:15.819909,-0.4163660109043121,9.89706802368164,2.7087719440460205,0,7.487e-05,1.7466260912026681e-06,-1.2122659351063078e-09,0.0007055692876970767,2.753261957900107e-08,-1.0978789704581659e-05,2.1004391897773955e-09,-2.4089918488285607,74.69331870600364,98.7385553927624,10.269506393457712,7394.662071947023,92.40899184882856,15.306681293996364,-8.738555392762379,10.269506393457712,0.0007056568601433987,2.7639221667213515e-08,0
2024-02-06 10:04:15.895023,-0.4163660109043121,11.844895362854004,1.746822953224182,0,7.5114e-05,1.645032784542019e-06,-1.211852152723467e-09,0.000708221807230234,2.77051020925822e-08,-1.043520712711471e-05,2.0978266821639286e-09,-2.01320450517701,81.6107890435598,103.40664460863522,11.98024612609889,22775.24472989294,92.01320450517701,8.389210956440202,-13.406644608635217,11.98024612609889,0.0007083005914984872,2.781082782638557e-08,0
2024-02-06 10:04:15.969910,-0.3804723918437958,7.800880432128906,1.0552724599838257,0,7.488699999999999e-05,1.735473943253933e-06,-1.2122358402370718e-09,0.0007059920116775034,2.754458882413616e-08,-1.0753244956513832e-05,2.1002315714754206e-09,-2.7922747346175756,82.29601817922267,109.82647587486173,7.881122681580799,-54737.450352105065,92.79227473461758,7.703981820777343,-19.82647587486172,7.881122681580799,0.0007060760332282569,2.7651127678214213e-08,0
2024-02-06 10:04:16.045129,0.0765730589628219,8.695828437805176,1.524282455444336,0,7.5219e-05,1.68502665399569e-06,-1.2116680371379284e-09,0.0007087304653499125,2.777943275532272e-08,-1.0325038840552745e-05,2.0967325763651074e-09,0.5045177398675049,80.0576927718947,87.1241366370126,8.828744681837591,12598.173337279037,89.49548226013249,9.942307228105308,2.875863362987404,8.828744681837591,0.000708807673672476,2.7884786374231186e-08,0
2024-02-06 10:04:16.119914,0.0215361732989549,10.787229537963867,1.8257888555526731,0,7.478500000000001e-05,1.6637369505948848e-06,-1.2123947188401246e-09,0.0007045026417691708,2.7472761171077885e-08,-1.1052004315039078e-05,2.101371394729871e-09,0.11438805424000513,80.39346518398996,89.32419643691527,10.94067136224011,28239.977006117784,89.88561194576,9.606534816010047,0.6758035630847341,10.94067136224011,0.0007045912908060679,2.7579671300723385e-08,0
2024-02-06 10:04:16.225154,-0.3445787727832794,8.205282211303711,2.2301902770996094,0,0.00010524,-3.255394233052665e-06,-1.2366316801087504e-09,0.0009937111144311427,5.333231114361815e-08,5.071041792742354e-05,2.705269888012455e-09,-2.404708969029269,74.79437888713433,98.78311579581091,8.509943558558986,-23096.995473974956,92.40470896902927,15.205621112865668,-8.783115795810916,8.509943558558986,0.0009950095090108285,5.341519591838012e-08,0
2024-02-06 10:04:16.284981,-0.9188767075538636,9.442415237426758,2.1201164722442627,0,5.9826999999999995e-05,2.5433257631222676e-05,-1.7402133353592977e-09,0.0005929936723115443,1.7303798903445317e-08,-4.806982227655311e-05,2.6453112028659656e-09,-5.558165267193885,77.3451870899128,113.43232330419247,9.72103048938514,20243.149929399,95.55816526719389,12.654812910087202,-23.432323304192465,9.72103048938514,0.0005954822027642529,1.759111907479015e-08,0
2024-02-06 10:04:16.360078,-1.5984625816345217,9.026049613952637,2.584340810775757,0,7.5097e-05,6.2133721582693435e-06,-1.498591316916526e-09,0.000734000401451826,2.7435398656628658e-08,-1.2151290920695241e-05,2.185523003604974e-09,-10.042636833802147,74.02251019118737,121.73755738625938,9.523837025309774,-2625.850088224099,100.04263683380215,15.977489808812635,-31.73755738625938,9.523837025309774,0.0007341272704348057,2.756308012872592e-08,0
2024-02-06 10:04:16.435129,-2.167974710464477,9.301233291625977,2.6872358322143555,0,7.505100000000001e-05,6.300000215987606e-06,-1.4988791244811338e-09,0.0007335788739449978,2.7401644333294536e-08,-1.2272537183483993e-05,2.18608475165137e-09,-13.12050877894748,73.88537143254965,128.89546368538538,9.921405722396484,5297.313787780439,103.12050877894748,16.11462856745035,-38.89546368538537,9.921405722396484,0.0007337085725750057,2.7529542628594114e-08,0
2024-02-06 10:04:16.510037,-2.227797508239746,8.707792282104492,3.0318145751953125,0,7.490800000000001e-05,6.614297929624962e-06,-1.4998024967985452e-09,0.000732291228616476,2.729683462096139e-08,-1.268144928761379e-05,2.1878689616840534e-09,-14.350707597070844,70.80328348399223,126.30869317537808,9.485811920144975,-5815.050491956916,104.35070759707084,19.196716516007765,-36.308693175378075,9.485811920144975,0.0007324308920312989,2.742541446262973e-08,0
2024-02-06 10:04:16.585076,0.3350071310997009,9.746315002441406,1.426173210144043,0,7.5039e-05,6.4903201599223e-06,-1.49894414431368e-09,0.0007334999726436137,2.7392843944643918e-08,-1.2389451087674086e-05,2.186226817709472e-09,1.9686354021671224,81.67502185145766,76.78091504729146,9.855803160069435,4930.65259297778,88.03136459783288,8.324978148542344,13.219084952708556,9.855803160069435,0.0007336333093734324,2.7520797964845774e-08,0
2024-02-06 10:04:16.660036,0.8853759765625,11.201202392578123,1.995685338973999,0,7.496e-05,6.442115027169645e-06,-1.49945497550357e-09,0.0007326725457065105,2.733493013016909e-08,-1.2524614500364244e-05,2.1872109233001995e-09,4.519430387697361,79.89778236328974,66.0757680319477,11.411993061317888,20760.270827754182,85.48056961230265,10.102217636710261,23.9242319680523,11.411993061317888,0.0007328079052838232,2.7463260222846668e-08,0
2024-02-06 10:04:16.734422,0.8279461860656738,8.94229793548584,1.7922881841659546,0,7.438599999999999e-05,5.950391566495349e-06,-1.503011624895952e-09,0.0007268913611123561,2.6916035288912065e-08,-1.3611762901505433e-05,2.1947120636145363e-09,5.28979937217117,78.6664820829046,65.2054591534138,9.157646214454667,-30306.06359883878,84.71020062782884,11.333517917095413,24.794540846586205,9.157646214454667,0.0007270431473501796,2.7047158088433378e-08,0
2024-02-06 10:04:16.809361,1.1174880266189575,8.437394142150879,1.3543859720230105,0,7.493900000000001e-05,6.488304126302669e-06,-1.499572325536893e-09,0.0007316968459718228,2.7319334928170854e-08,-1.2741707497319153e-05,2.187425329049261e-09,7.544611231733971,80.88057294027523,50.474358353610214,8.618164581907878,-7198.9435747312955,82.45538876826603,9.119427059724769,39.52564164638978,8.618164581907878,0.0007318365415893743,2.744776143235106e-08,0
2024-02-06 10:04:16.900155,0.5719050168991089,9.650598526000977,1.9382555484771729,0,9.0794e-05,1.988096747879213e-05,-1.2905299248875041e-09,0.0008750894078485965,4.005713295533222e-08,1.3360708156446032e-05,2.1923324567744897e-09,3.3914441185791677,78.6436302089774,73.56068761667167,9.85991692812922,13676.590371845512,86.60855588142084,11.3563697910226,16.439312383328332,9.85991692812922,0.0008754171766187489,4.013783364469512e-08,0
2024-02-06 10:04:16.975153,0.5264397859573364,8.614469528198242,1.9406484365463257,0,7.499799999999999e-05,1.120624022583192e-05,-1.536056691338625e-09,0.000730831900356531,2.7373566463128113e-08,-1.7274875517269575e-05,2.223246550590274e-09,3.4970596164211822,77.30446954414255,74.82262279648637,8.846035295812726,-13518.782265080323,86.50294038357882,12.695530455857456,15.177377203513633,8.846035295812726,0.0007311219239790821,2.7506625316367146e-08,0
2024-02-06 10:04:17.050087,1.043307900428772,8.887260437011719,1.3902796506881714,0,7.4934e-05,1.1156008299867571e-05,-1.5367722832914473e-09,0.0007302718449976443,2.7326811143276787e-08,-1.7381465216061063e-05,2.22435555349374e-09,6.695515086655502,81.10898734007858,53.11432878884906,9.055648345507263,2797.3022886078074,83.3044849133445,8.891012659921424,36.88567121115095,9.055648345507263,0.0007305638503584113,2.7460226400002013e-08,0
2024-02-06 10:04:17.125124,0.6748000979423523,8.57618236541748,1.868861198425293,0,7.503700000000001e-05,1.1244490861783692e-05,-1.5356186575846222e-09,0.0007311712123019695,2.7402075460727723e-08,-1.7213619462331704e-05,2.222573906632803e-09,4.498937037664555,77.70669001450554,70.14658776144684,8.803346029553785,-3362.3721091392076,85.50106296233544,12.293309985494462,19.85341223855317,8.803346029553785,0.0007314602442845862,2.753491781333991e-08,0
2024-02-06 10:04:17.199923,0.2512553632259369,6.920289993286133,0.382865309715271,0,7.4799e-05,1.1134290261904663e-05,-1.5382817325383413e-09,0.0007293271320912836,2.722827615774492e-08,-1.748157491680044e-05,2.2267026347639198e-09,2.0793277951615026,86.83333706836989,56.7251116254932,6.935425631791415,-24972.531688423234,87.9206722048385,3.166662931630114,33.2748883745068,6.935425631791415,0.0007296215755346773,2.7362447584869782e-08,0
2024-02-06 10:04:17.275120,0.9021263718605042,6.381886005401611,-1.0337363481521606,0,7.5197e-05,1.1363813227186867e-05,-1.533804609944012e-09,0.0007319742651150225,2.751907513578898e-08,-1.7611098253449384e-05,2.21971919280304e-09,8.045870491302637,99.20084301947892,-48.889279212085704,6.527703410406917,-5422.054355685705,81.95412950869736,-9.20084301947892,138.8892792120857,6.527703410406917,0.0007322742736321086,2.7651025409658553e-08,0
2024-02-06 10:04:17.350039,1.6965718269348145,6.2000250816345215,-0.5982270240783691,0,7.4919e-05,1.1002594177554319e-05,-1.536913540573271e-09,0.0007302253794739245,2.7315829385191118e-08,-1.738425534470934e-05,2.2245835469531837e-09,15.3037562794004,95.51128504797678,-19.423124830767417,6.455737180925487,-960.587160552464,74.6962437205996,-5.511285047976787,109.42312483076742,6.455737180925487,0.0007305151430602675,2.7449324403151397e-08,0
2024-02-06 10:04:17.425090,0.6939433217048645,7.458694458007812,0.2871489822864532,0,7.505100000000001e-05,1.1160368177364543e-05,-1.5354507850578464e-09,0.000731126854963541,2.7412278632663993e-08,-1.7404786495467608e-05,2.222287470191732e-09,5.315393152750059,87.79528390260086,22.479435918455415,7.49640813254477,13866.183683352418,84.68460684724994,2.2047160973991504,67.52056408154459,7.49640813254477,0.0007314191400692805,2.7545039309253362e-08,0
2024-02-06 10:04:17.500068,-0.4235447347164154,10.308648109436035,-1.6176059246063232,0,7.4978e-05,1.1150498628939464e-05,-1.5362651316962767e-09,0.0007304783469598291,2.7358930042793783e-08,-1.7356224817072925e-05,2.22355624710464e-09,-2.35275122030407,98.91798141081733,-104.67261570770889,10.44338378658022,39304.53805163449,92.35275122030407,-8.917981410817337,-165.32738429229113,10.44338378658022,0.0007307695858044034,2.7492096428344422e-08,0
2024-02-06 10:04:17.575151,0.1794681102037429,7.774558544158935,-3.96744155883789,0,7.5083e-05,1.1137684606152548e-05,-1.5350950020764343e-09,0.0007314277153091429,2.7435680111062903e-08,-1.7649439809953745e-05,2.2217184497117213e-09,1.322382400294573,117.03571380558388,-87.40997816886053,8.730209727259066,-22817.06990025911,88.67761759970543,-27.035713805583885,177.40997816886053,8.730209727259066,0.0007317253948486029,2.756826241698526e-08,0
2024-02-06 10:04:17.665120,-2.2158329486846924,4.603955268859863,-4.28809118270874,0,8.996899999999999e-05,-4.01897888666115e-06,-1.48211047540626e-09,0.0008235609936194417,3.900946107161835e-08,-7.90953700052853e-05,1.5016468302568975e-09,-25.700999431681637,132.96558948558356,-117.32725727897571,6.670385728379104,-22894.8193142078,115.70099943168164,-42.96558948558354,-152.6727427210243,6.670385728379104,0.0008273602238197135,3.9066477288875654e-08,0
2024-02-06 10:04:17.740108,-0.1483602970838546,5.376864433288574,-3.596540927886963,0,7.4988e-05,1.369001062076815e-05,-1.5545513386105884e-09,0.0007487996636404989,2.723169356841277e-08,-2.003553318086819e-05,2.24418686057278e-09,-1.5805238780628603,123.77824266655277,-92.3621592057443,6.470532324135355,-2665.138478739915,91.58052387806286,-33.77824266655277,-177.6378407942557,6.470532324135355,0.0007491927490631251,2.7368195759557787e-08,0
2024-02-06 10:04:17.815184,1.9334697723388672,8.224425315856934,-10.930804252624512,0,7.5076e-05,1.3768555437679374e-05,-1.5533431617040166e-09,0.0007493981203894613,2.7297614270910088e-08,-2.0674736368810717e-05,2.242395608712594e-09,13.229369350114093,143.041902185208,-79.96912469000986,13.81527990110409,97830.83244936776,76.77063064988592,-53.04190218520798,169.96912469000983,13.81527990110409,0.0007498096829769657,2.743357355372027e-08,1
2024-02-06 10:04:17.890101,6.168917179107666,8.320141792297363,-18.56178855895996,0,7.4917e-05,1.3124415675039389e-05,-1.5554811529074777e-09,0.000748082827304363,2.7178564535568432e-08,-1.8330075240289807e-05,2.2454964912355175e-09,36.554855453759075,155.8561543722187,-71.61603209673254,21.256064854863418,99320.3806046602,53.445144546240925,-65.8561543722187,161.61603209673254,21.256064854863418,0.0007484224465185523,2.731549278931756e-08,1
2024-02-06 10:04:17.965072,-3.5797905921936035,1.974149227142334,-4.390986442565918,0,7.4971e-05,1.3194322092886064e-05,-1.5547705469877438e-09,0.0007483607731618878,2.7218968512781018e-08,-1.8949800165330964e-05,2.2444899345995658e-09,-61.12455656074117,155.79173190138903,-129.18894489174536,5.999410620534504,-203500.74341183808,151.12455656074115,-65.79173190138903,-140.81105510825464,5.999410620534504,0.0007487169237230151,2.7355571524281186e-08,0
2024-02-06 10:04:18.039880,5.458223342895508,-0.8805902004241943,-6.882003784179688,0,7.4808e-05,1.3041229823703867e-05,-1.5569087444689458e-09,0.0007482716481012103,2.709699297044808e-08,-1.8031051461851247e-05,2.247503874007181e-09,99.16471649453612,-172.7083125523405,-51.58152347902111,8.82777532833024,37808.31873323356,-9.164716494536119,-97.29168744765951,141.58152347902112,8.82777532833024,0.0007486024658283167,2.723457850863115e-08,0
2024-02-06 10:04:18.115084,11.619961738586426,-2.2804415225982666,-9.964069366455078,1,7.5204e-05,1.6422710469837184e-05,-1.5510748842908248e-09,0.0007476457638200518,2.739318461800848e-08,-2.1366573945676825e-05,2.2397031441764907e-09,101.10330301761972,-167.10893340740364,-40.61295286199698,15.476000862100365,88402.55217501895,-11.103303017619728,-102.89106659259639,130.612952861997,15.476000862100365,0.0007481312879832128,2.752832481258183e-08,1
2024-02-06 10:04:18.190144,5.350542545318604,-1.4788172245025637,-7.642948627471924,1,7.506e-05,1.5200834161396102e-05,-1.5533517795042734e-09,0.000747916430449843,2.7285504140021055e-08,-2.0098868650114163e-05,2.2426886560433876e-09,105.45007532779337,-169.0492840905967,-55.005572391123756,9.446156341863336,-80333.66000848693,-15.450075327793364,-100.95071590940329,145.00557239112376,9.446156341863336,0.0007483408426760173,2.7421547920092712e-08,0
2024-02-06 10:04:18.265064,-0.208183005452156,0.8518753051757812,-8.674291610717773,1,7.492e-05,1.4840868993605429e-05,-1.5554546987251237e-09,0.000747960316384196,2.7180792767742666e-08,-1.895666183344081e-05,2.2454225431772367e-09,-13.73289311269407,174.3911445739576,-91.37483482542571,8.718507134085295,-9712.349276268573,103.73289311269407,-84.39114457395758,-178.62516517457428,8.718507134085295,0.0007483476740833096,2.731770226794645e-08,0
2024-02-06 10:04:18.340109,7.279226303100586,6.9107184410095215,-10.54793930053711,1,7.5045e-05,1.5282809199708465e-05,-1.5535719688380415e-09,0.0007484454784933326,2.7274318129922515e-08,-2.015805126539427e-05,2.2429778736085596e-09,46.487616825985555,146.76829049429983,-55.39009942342465,14.560363609143687,77844.71283974139,43.51238317401445,-56.76829049429984,145.39009942342466,14.560363609143687,0.0007488728500653275,2.74104535726076e-08,1
2024-02-06 10:04:18.430099,7.499373912811279,15.448615074157717,-12.349798202514648,1,8.999e-05,0.0001257158993131099,-4.999591194760063e-10,0.0009155255981854198,3.9708342000404495e-08,-0.00019126139475694854,6.63146063206603e-10,25.893785683981996,128.63923693931926,-58.73192223349272,21.152253601838304,73251.36118118254,64.106214316018,-38.63923693931927,148.73192223349272,21.152253601838304,0.0009437015043949267,3.9717025898767664e-08,0
2024-02-06 10:04:18.505077,7.683628082275391,2.5029819011688232,-3.247176170349121,1,7.4978e-05,1.1752286337989362e-05,-1.5317953209731572e-09,0.0007807809112886188,2.6975865340292366e-08,-7.41905051142331e-05,2.6556280236396924e-09,71.95671039251742,142.3743167902484,-22.90939351460379,8.70903048482395,-165958.32266817405,18.043289607482574,-52.374316790248386,112.90939351460379,8.70903048482395,0.0007843858608592846,2.7149513217788686e-08,0
2024-02-06 10:04:18.580107,7.492195129394531,7.269654750823975,-3.146674156188965,1,7.503e-05,1.2146857741492823e-05,-1.5311739432270907e-09,0.0007810349998415707,2.7016472553981756e-08,-7.435674522272311e-05,2.6517657951309313e-09,45.863689765652765,113.40540096163002,-22.782095009432247,10.903321801099345,29245.519342601558,44.13631023434724,-23.405400961630015,112.78209500943225,10.903321801099345,0.0007846605270374133,2.7189449143678758e-08,0
2024-02-06 10:04:18.654867,6.156952381134033,3.694650173187256,-1.7635732889175415,1,7.476e-05,1.0304222827571404e-05,-1.5342048391039144e-09,0.000779554818676829,2.6805792928481765e-08,-7.369386181763371e-05,2.67175262708138e-09,59.03296774745551,115.51661783834764,-15.983623046495545,7.393828052583323,-46943.46908127371,30.96703225254449,-25.516617838347653,105.98362304649555,7.393828052583323,0.0007830981276953358,2.698226419545419e-08,0
2024-02-06 10:04:18.730068,6.0947370529174805,7.185903072357178,-0.9595561623573304,1,7.5201e-05,1.3005720347779791e-05,-1.5290649966337494e-09,0.0007819539806674717,2.7150105618737185e-08,-7.429431186163983e-05,2.6391212347851e-09,40.30300550142516,97.60589088369106,-8.947211070609626,9.471207459359947,27624.35880874755,49.69699449857484,-7.6058908836910515,98.94721107060963,9.471207459359947,0.0007855831091733476,2.732089375852131e-08,0
2024-02-06 10:04:18.804919,6.389064788818359,7.315120220184326,-0.1651106625795364,1,7.4851e-05,1.0821055025476051e-05,-1.5332346823240692e-09,0.0007794163015912769,2.6876865819341908e-08,-7.409749516727588e-05,2.6650898010151598e-09,41.13413518964943,91.2930119824746,-1.4803479546131186,9.71382490280557,3241.338705503233,48.86586481035057,-1.2930119824745852,91.48034795461312,9.71382490280557,0.0007830053034355215,2.705216125394542e-08,0
2024-02-06 10:04:18.879856,5.295505523681641,7.523303031921387,-0.0693943351507186,1,7.4937e-05,1.1323491548913545e-05,-1.5322824668213706e-09,0.0007800543537911175,2.694392305752335e-08,-7.410757888217828e-05,2.6587169828310334e-09,35.14096334633396,90.528476621879,-0.7507828929807292,9.200395797747579,-6851.476641151782,54.85903665366604,-0.5284766218789915,90.75078289298072,9.200395797747579,0.0007836484859789589,2.71181056728279e-08,0
2024-02-06 10:04:18.955076,5.204575061798096,7.494588375091553,-0.2967205941677093,1,7.522e-05,1.2809252951758913e-05,-1.5288676834745256e-09,0.0007821793854252098,2.7164979131622457e-08,-7.415938414467684e-05,2.6377372075627336e-09,34.777830341629425,92.26723102795697,-3.262985746947885,9.129320872712896,-944.893978126601,55.222169658370575,-2.2672310279569663,93.26298574694788,9.129320872712896,0.0007857915004643781,2.7335529722162278e-08,0
2024-02-06 10:04:19.030103,5.551546573638916,8.50678825378418,-0.0071787242777645,1,7.5027e-05,1.1771287213939224e-05,-1.5312397056005156e-09,0.0007806352525805232,2.70141675190549e-08,-7.413005786044684e-05,2.6520471387162283e-09,33.128544782675064,90.0483508573973,-0.07408933144940337,10.158010006299696,13710.91918358458,56.871455217324936,-0.04835085739728337,90.0740893314494,10.158010006299696,0.0007842354405741452,2.7187189921165838e-08,0
2024-02-06 10:04:19.105099,5.345756530761719,7.812844753265381,0.6819788217544556,1,7.4996e-05,1.1602379015821014e-05,-1.5316019974270768e-09,0.0007803822982689139,2.6989971747016736e-08,-7.414051726195773e-05,2.6543453326306256e-09,34.38097365353828,85.01132831274535,7.270172860378908,9.491193346367439,-8891.363005123701,55.61902634646172,4.988671687254648,82.7298271396211,9.491193346367439,0.0007839821190245155,2.7163393174052138e-08,0
2024-02-06 10:04:19.195088,5.080143928527832,8.104779243469238,0.49054616689682,1,8.9989e-05,8.97601418088851e-05,-7.717378600646676e-10,0.000899708766560435,3.9584774414509947e-08,-6.535068368453344e-05,1.6086495447352548e-09,32.079832485926524,86.53636718314624,5.515464845113308,9.577888309109955,963.3951120972166,57.92016751407348,3.463632816853764,84.4845351548867,9.577888309109955,0.0009065337608392124,3.962496306787017e-08,0
2024-02-06 10:04:19.270033,5.125608921051025,8.083243370056152,0.1866468340158462,1,7.4945e-05,1.2992468874352932e-05,-1.544642997623984e-09,0.000777942460461497,2.6965481884850975e-08,-7.044452943739852e-05,2.630101137838427e-09,32.37890686216603,88.67724187414537,2.085479582018843,9.573167042925906,-62.99641315696845,57.62109313783397,1.3227581258546397,87.91452041798115,9.573167042925906,0.0007812334527937186,2.7137438480217578e-08,0
2024-02-06 10:04:19.345094,5.240468502044678,8.265104293823242,0.509689450263977,1,7.5061e-05,1.3593701364892537e-05,-1.5431009997501076e-09,0.000778890664626002,2.7055778206106058e-08,-7.040414193291029e-05,2.621931914898948e-09,32.37663751083984,86.47117340281008,5.555131335132336,9.799706242760962,3018.067969185807,57.623362489160165,3.5288265971899135,84.44486866486767,9.799706242760962,0.0007821842489846255,2.7226289170575542e-08,0
2024-02-06 10:04:19.420080,5.620941162109375,8.16699504852295,0.387651115655899,1,7.4986e-05,1.318639850248675e-05,-1.5441052534951343e-09,0.000778274460900664,2.6997384513898807e-08,-7.043779220413228e-05,2.627213487429087e-09,34.53772505194677,87.2824625113324,3.945186239463257,9.921948450680599,1630.2004096716323,55.46227494805323,2.717537488667607,86.05481376053675,9.921948450680599,0.0007815666959167836,2.7168829241130426e-08,0
2024-02-06 10:04:19.495051,5.168681621551514,8.013849258422852,0.1890397369861602,1,7.4971e-05,1.3105476331609263e-05,-1.5443024425563901e-09,0.0007781531045683619,2.6985711307157786e-08,-7.04421173855271e-05,2.62827008675101e-09,32.82074798601905,88.64869297909642,2.0946063747586976,9.537965488711347,-5121.753237508534,57.17925201398096,1.3513070209035865,87.9053936252413,9.537965488711347,0.0007814448794131385,2.7157343177053596e-08,0
2024-02-06 10:04:19.570058,5.551546573638916,8.454144477844238,0.1962184607982635,1,7.500700000000001e-05,1.3298440439122751e-05,-1.543827172054517e-09,0.0007784495284556147,2.7013730154552225e-08,-7.043518273796697e-05,2.6257342953487865e-09,33.291532317258024,88.67041879847588,2.024266830387332,10.115865256907304,7704.611145572506,56.70846768274198,1.329581201524129,87.97573316961267,10.115865256907304,0.0007817426890212743,2.7184913091454032e-08,0
2024-02-06 10:04:19.660036,4.759494304656982,7.992312908172607,-0.1100737750530242,1,8.9978e-05,9.048173693360664e-05,-7.669806543309516e-10,0.0009015594852186437,3.9589437626410876e-08,-6.979034669282098e-05,1.576076094794624e-09,30.774179344187758,90.78905369531117,-1.3248547588272834,9.302793553237606,-9036.338923622414,59.22582065581225,-0.7890536953111625,91.32485475882729,9.302793553237606,0.000908772327152259,3.962822033294175e-08,0
2024-02-06 10:04:19.719864,5.218932628631592,8.66472053527832,-0.2584340870380401,1,5.9828e-05,-5.994304908571861e-05,-1.2273513736378638e-09,0.000650454706058621,1.619282369290611e-08,-6.423509067179819e-05,3.596509563066258e-09,31.061387411062217,91.70839832303427,-2.8348895176535684,10.118370813229394,13632.03282730139,58.93861258893778,-1.7083983230342796,92.83488951765358,10.118370813229394,0.0006563616690827658,1.6632763197410685e-08,0
2024-02-06 10:04:19.794503,5.001177787780762,8.090422630310059,-0.7418015003204346,0,7.4639e-05,1.5741978603023103e-05,-1.5546824010974654e-09,0.0007745349187713858,2.674558435958473e-08,-7.164233531398138e-05,2.590269284928567e-09,31.72270943276474,95.2387361568794,-8.436904246495377,9.540282336907145,-7745.126225193912,58.27729056723526,-5.238736156879404,98.43690424649539,9.540282336907145,0.0007780004977477688,2.6915661148713957e-08,0
2024-02-06 10:04:19.870064,5.429508686065674,8.202888488769531,-1.012200117111206,0,7.5561e-05,2.0550525067466324e-05,-1.5379515569053696e-09,0.0007820461351972815,2.746316822546429e-08,-7.245093005961736e-05,2.523842289591338e-09,33.50065683399178,97.03448585513878,-10.56018297109079,9.888958145746711,4614.494366664894,56.499343166008224,-7.034485855138781,100.5601829710908,9.888958145746711,0.0007856638078237134,2.7621742955039397e-08,0
2024-02-06 10:04:19.960034,4.611134052276611,8.267497062683105,-1.208418607711792,0,8.997e-05,9.288833567585327e-05,-7.206812846801242e-10,0.000900707027902722,3.9586563389018256e-08,-8.844937766260463e-05,1.3646360226065903e-09,29.150263099076582,98.31575077688342,-14.685004921594867,9.543287717605647,-3842.063222641593,60.84973690092342,-8.315750776883418,104.68500492159487,9.543287717605647,0.0009097937598307029,3.9616633046500106e-08,0
2024-02-06 10:04:20.035136,4.919818878173828,8.406286239624023,-2.0411505699157715,0,7.5102e-05,2.2035231590884723e-05,-1.575023083741054e-09,0.0007767541228333708,2.711631719444615e-08,-6.429208039612133e-05,2.5001160218151584e-09,30.33850709413299,103.64799852309314,-22.5327445570643,9.951711500319695,5438.25441018944,59.66149290586701,-13.647998523093134,112.5327445570643,9.951711500319695,0.0007797217390656519,2.727683882026416e-08,0
2024-02-06 10:04:20.110028,4.711636066436768,8.207674980163574,-2.2852272987365723,0,7.4892e-05,2.102392882170061e-05,-1.5795442955843755e-09,0.0007750096569052931,2.695338199757359e-08,-6.383781071991284e-05,2.513569660382342e-09,29.85808500388348,105.55856690141674,-25.87421027495682,9.735897843005631,-2881.665028495212,60.14191499611652,-15.55856690141674,115.87421027495681,9.735897843005631,0.0007779185304111681,2.7116375010801718e-08,0
2024-02-06 10:04:20.184325,4.407736778259277,8.571396827697754,-1.3400285243988037,0,7.4297e-05,1.831091540040352e-05,-1.5912464117404515e-09,0.0007700178830424543,2.6493736304439133e-08,-6.275929711253005e-05,2.551232299962494e-09,27.213943257867793,98.88553845362783,-16.91018261866135,9.731015544663826,-65.71326354771888,62.78605674213221,-8.885538453627829,106.91018261866135,9.731015544663826,0.0007727881722710579,2.6663812832383985e-08,0
2024-02-06 10:04:20.259327,4.058372020721436,8.42782211303711,-1.2921704053878784,0,7.5002e-05,2.1295218752044228e-05,-1.5772852494517136e-09,0.0007760101077190633,2.7038711171182568e-08,-6.368714723527986e-05,2.506659928329891e-09,25.712888390937113,98.71682162013303,-17.661279733538123,9.442895391993504,-3841.499595615075,64.28711160906289,-8.71682162013302,107.66127973353812,9.442895391993504,0.000778910281320524,2.7200424161271194e-08,0
2024-02-06 10:04:20.335033,3.426644325256348,9.56684684753418,-2.4120514392852783,0,7.5706e-05,2.3929944505828404e-05,-1.5613659919849426e-09,0.0007823442311931844,2.758725189847968e-08,-6.499103332460481e-05,2.4613652087728115e-09,19.706461355183684,104.15083491916202,-35.142122488708814,10.4443497682596,13228.203527674114,70.29353864481632,-14.150834919162019,125.14212248870881,10.4443497682596,0.000785403700486512,2.7740811988153033e-08,0
2024-02-06 10:04:20.409585,4.443630218505859,9.562060356140137,-4.924604892730713,0,7.455199999999999e-05,1.9388796094077573e-05,-1.5863609053110885e-09,0.0007713068517366642,2.6690795223629147e-08,-6.075778262103155e-05,2.5339222755734444e-09,24.924986871125718,117.24914849038127,-47.93904279375458,11.63746454872334,16003.793063415329,65.07501312887429,-27.24914849038128,137.9390427937546,11.63746454872334,0.0007739390758315067,2.6857696339973972e-08,0
2024-02-06 10:04:20.485061,3.0509579181671143,7.779344081878662,-6.94421911239624,0,7.547600000000001e-05,2.2851295813220563e-05,-1.5668459828499163e-09,0.0007793185805870291,2.7407184173362707e-08,-6.624117931140031e-05,2.4752487551606596e-09,21.41446796173609,131.7536444125858,-66.28160912947787,10.865022671106416,-10234.271524947317,68.58553203826392,-41.75364441258581,156.28160912947789,10.865022671106416,0.0007824624755252422,2.756330181684554e-08,0
2024-02-06 10:04:20.559991,2.6944146156311035,9.621883392333984,-7.236154079437256,0,7.493e-05,2.1282809111493636e-05,-1.5788945934943634e-09,0.0007745680454865689,2.698297312444461e-08,-6.236993743002973e-05,2.51035959003107e-09,15.643832676356508,126.94505918995064,-69.57695819045911,12.337035138069256,19645.168383328964,74.3561673236435,-36.94505918995063,159.5769581904591,12.337035138069256,0.0007773664670845955,2.7145453616455314e-08,0
2024-02-06 10:04:20.635099,3.670721054077149,8.76761531829834,-7.212224960327148,0,7.5108e-05,2.1849306186097662e-05,-1.575055835232878e-09,0.0007762047108718151,2.7120991899760506e-08,-6.365584316456875e-05,2.499143295558151e-09,22.717506745822302,129.44065411876778,-63.02580809801467,11.931532185971376,-5398.931566515949,67.28249325417771,-39.440654118767796,153.02580809801466,11.931532185971376,0.0007791169435517394,2.7281398786035685e-08,0
2024-02-06 10:04:20.725105,3.3213565349578857,7.377335548400879,-6.606819152832031,0,9.0006e-05,7.393329214681966e-05,-8.615712602509765e-10,0.0008964684498778577,3.958073427418482e-08,-0.00016659390276349152,7.840129381400291e-10,24.237791115306585,131.846234640132,-63.31057220541917,10.445408002765374,-16511.390165166784,65.76220888469342,-41.846234640131996,153.3105722054192,10.445408002765374,0.0009148089099653806,3.959787250607399e-08,0
2024-02-06 10:04:20.800129,3.697042942047119,5.424722671508789,-6.487174034118652,0,7.502399999999999e-05,2.135846166457512e-05,-1.5754017880521353e-09,0.0008005682317525143,2.6868232492091693e-08,-6.850679980004386e-05,2.545152301043474e-09,34.275111203350036,140.09686435202974,-60.32116814258904,9.2292561740947,-16210.170461061442,55.72488879664997,-50.096864352029755,150.32116814258904,9.2292561740947,0.0008037778668232087,2.7034452246686938e-08,0
2024-02-06 10:04:20.874870,3.977013349533081,3.910011768341065,-8.04734992980957,0,7.474100000000001e-05,2.0272582699316585e-05,-1.5812925808296257e-09,0.0007992473668292756,2.6641858584892382e-08,-6.645016465914814e-05,2.5642487115144485e-09,45.48672540293468,154.08600956005392,-63.70134305975966,9.79105040859948,7516.546935480914,44.513274597065326,-64.08600956005392,153.70134305975964,9.79105040859948,0.0008022611516059214,2.681164833683476e-08,0
2024-02-06 10:04:20.949734,4.087087154388428,3.0389933586120605,-7.863095760345459,0,7.4864e-05,2.0768524880307696e-05,-1.578768552713479e-09,0.0007996747306445831,2.6740192293887013e-08,-6.742865706909255e-05,2.5560151639781626e-09,53.366994065900826,158.86907348209417,-62.53544986068631,9.368459690771896,-5644.778769870481,36.63300593409918,-68.86907348209417,152.5354498606863,9.368459690771896,0.0008027811845399292,2.6908430046652252e-08,0
2024-02-06 10:04:21.025110,2.7662017345428467,2.9049904346466064,-7.781737327575684,0,7.5376e-05,2.2522966835874143e-05,-1.5676859308341362e-09,0.0008011963904956574,2.7150015300898922e-08,-7.143373433960046e-05,2.520466391777536e-09,43.59810431589212,159.5289580019691,-70.43104590421623,8.754785965228441,-8141.500285813189,46.40189568410787,-69.5289580019691,160.43104590421623,8.754785965228441,0.0008046898275609432,2.7311787214476844e-08,0
2024-02-06 10:04:21.099809,3.68986439704895,2.8547394275665283,-7.724307537078857,0,7.4699e-05,2.0337588450330298e-05,-1.5821942287985166e-09,0.0007992467219372982,2.660826530734036e-08,-6.618493815291484e-05,2.567050312416253e-09,52.2719350698175,159.71676196596732,-64.46641920838854,9.023833076652378,3601.7498416837875,37.7280649301825,-69.71676196596731,154.46641920838854,9.023833076652378,0.0008022402296505686,2.677858974161881e-08,0
2024-02-06 10:04:21.174451,3.780794858932495,2.311549186706543,-8.966226577758789,0,7.4642e-05,2.0124674661534815e-05,-1.5833474032972047e-09,0.0007990994827117915,2.656271244050786e-08,-6.570925793064194e-05,2.5708092970046346e-09,58.5587020899188,165.54358076389323,-67.13627346667614,10.001544303336468,13098.674026474231,31.4412979100812,-75.54358076389322,157.13627346667613,10.001544303336468,0.0008020490585857457,2.67337565942051e-08,0
2024-02-06 10:04:21.250046,2.376157760620117,2.1536173820495605,-8.911190032958984,0,7.5595e-05,2.3058462584751644e-05,-1.5627706383993492e-09,0.0008012271345818038,2.732526807364826e-08,-7.422784694564898e-05,2.5041292665310816e-09,47.81258574916377,166.413524075814,-75.06954075873027,9.47066530583405,-7022.673424200251,42.18741425083623,-76.41352407581397,165.06954075873028,9.47066530583405,0.0008049884391400457,2.7484235313147818e-08,0
2024-02-06 10:04:21.325136,2.873882532119751,2.0483293533325195,-7.506552696228027,0,7.509e-05,2.173282741083484e-05,-1.5740804391232348e-09,0.0008001661430311198,2.6920916271051003e-08,-7.00823669065293e-05,2.5405675955287564e-09,54.521030341468105,164.73715412064922,-69.05066323943285,8.294768672446201,-15659.829982525618,35.4789696585319,-74.73715412064922,159.05066323943285,8.294768672446201,0.0008035233104221613,2.7086305503136078e-08,0
2024-02-06 10:04:21.399684,4.680528163909912,1.619998812675476,-8.298604965209961,0,7.4548e-05,1.9685582112210816e-05,-1.5853048281039801e-09,0.0007991720260981316,2.648749562721698e-08,-6.579916918027963e-05,2.5773914918082815e-09,70.90851955984213,168.95401296476615,-60.57639953610876,9.664294305060833,18371.058011142246,19.091480440157863,-78.95401296476615,150.57639953610877,9.664294305060833,0.00080211780936824,2.6659774247016684e-08,0
2024-02-06 10:04:21.490068,4.03683614730835,2.2397620677948,-9.37541389465332,0,9.038400000000001e-05,8.870967272843702e-05,-7.270312002757305e-10,0.0008297336127496952,3.9385170475614075e-08,-0.00020574205051267713,4.2732811427944916e-10,60.9771260912235,166.56401494207378,-66.7044076574929,10.450405058972896,8697.454791910763,29.022873908776507,-76.56401494207375,156.7044076574929,10.450405058972896,0.0008594516074284861,3.9394198012862386e-08,0
2024-02-06 10:04:21.565066,3.682685613632202,2.5699832439422607,-9.069121360778809,0,7.499799999999999e-05,2.932339182152129e-05,-1.635059565858561e-09,0.0007927322420665019,2.6903540654513058e-08,-6.38482407926376e-05,2.5012862252912377e-09,55.0905178096493,164.17847347706999,-67.89947225988196,10.120076554035155,-4404.497519103725,34.9094821903507,-74.17847347706997,157.89947225988197,10.120076554035155,0.0007958397242988164,2.7068992451027323e-08,0
