timestamp,ax,ay,az,fall_state,time_interval,vx,dx,vy,dy,vz,dz,angle_xy,angle_yz,angle_zx,g_force,jerk,orientation_xy,orientation_yz,orientation_zx,magnitude_acceleration,magnitude_velocity,magnitude_displacement,impact_detection
2024-02-06 10:15:33.157874,0.6149773597717285,9.83485221862793,2.4623024463653564,0,0.0,0.0,0.0,0.0,0.0,0.0,0.0,3.5780700626522988,75.94407724322879,75.97685924259521,10.15703936453233,inf,86.42192993734771,14.055922756771212,14.023140757404796,10.15703936453233,0.0,0.0,1
2024-02-06 10:15:33.233214,0.8829830884933472,10.327791213989258,0.904519259929657,0,7.534000000000001e-05,5.6428170086145406e-05,2.1256491671450976e-09,0.0007595267781066895,2.8611373731278997e-08,0.00012682817367613318,4.777617302379937e-09,4.886666956787475,84.99474435679332,45.69027715183466,10.404858748964479,3289.346753811363,85.11333304321252,5.005255643206693,44.30972284816535,10.404858748964479,0.0007721077973174618,2.908530072494879e-08,0
2024-02-06 10:15:33.308071,1.4285660982131958,9.128944396972656,2.0890088081359863,0,7.4857e-05,5.586993095755577e-05,2.0985291757430435e-09,0.0007548279764566421,2.824565705805195e-08,0.00012610523664769534,4.716533883786732e-09,8.893944637245358,77.11072615905385,55.633775663413466,9.473245732084239,-12445.235808010471,81.10605536275465,12.889273840946146,34.36622433658654,9.473245732084239,0.0007673260414822388,2.871352746040502e-08,0
2024-02-06 10:15:33.383165,1.0839873552322388,10.500081062316896,3.0940301418304443,0,7.5094e-05,5.6167668541789046e-05,2.1118056312837154e-09,0.0007571540159735679,2.8424826924154922e-08,0.00012671942676326635,4.74649360640093e-09,5.894112448278392,73.58148055599025,70.69219137020602,10.99998879181632,20331.092493835466,84.10588755172162,16.41851944400974,19.307808629793985,10.99998879181632,0.0007697368537451828,2.889566940301071e-08,0
2024-02-06 10:15:33.458131,-3.2232472896575928,3.716186285018921,4.417308330535889,0,7.4966e-05,5.6304581177592266e-05,2.1046074073016753e-09,0.0007562441748633384,2.8327969439941363e-08,0.00012623870110103493,4.730304286217615e-09,-40.93684949932342,40.073178724988566,126.11769948632585,6.611503345100076,-58539.677276581955,130.93684949932342,49.926821275011434,-36.117699486325854,6.611503345100076,0.00076877283220207,2.8797204787432574e-08,0
2024-02-06 10:15:33.533164,0.6101915836334229,9.39934253692627,2.0052568912506104,0,7.5033e-05,5.621704381144046e-05,2.108376881738808e-09,0.0007566835450788736,2.8378652518559424e-08,0.00012645385703596477,4.738769486915204e-09,3.714346205200522,77.95705278228901,73.07520641983184,9.630214384691376,40231.77854532406,86.28565379479949,12.042947217710996,16.92479358016816,9.630214384691376,0.0007692339834974149,2.8848728015195197e-08,0
2024-02-06 10:15:33.623057,0.7489802241325378,7.587911605834961,1.8832186460494995,0,8.9893e-05,6.631569034314154e-05,3.0187950965073523e-09,0.0008828988433595895,4.056074966465721e-08,0.0001553452302781046,6.83253670565874e-09,5.637235586962999,76.06158185213627,68.31164934265827,7.853908987436449,-19760.21934138284,84.362764413037,13.938418147863734,21.688350657341726,7.853908987436449,0.0008989106067688521,4.124283083188957e-08,0
2024-02-06 10:15:33.698160,-2.4981961250305176,9.89706802368164,5.685549736022949,0,7.5103e-05,7.92511419302821e-05,1.9423283718453848e-09,0.0007535974189993143,2.8458859804513116e-08,9.937418809267883e-05,4.948886606806797e-09,-14.166549975138423,60.12400721998993,113.72039581640666,11.684109514434112,50999.301319490085,104.16654997513842,29.87599278001008,-23.72039581640667,11.684109514434112,0.0007642414819144279,2.8951179933191663e-08,0
2024-02-06 10:15:33.772991,-1.074415683746338,8.262711524963379,5.458223342895508,0,7.483099999999999e-05,7.973701713627578e-05,1.9207059822123317e-09,0.0007511276889806984,2.8254217189827825e-08,9.785863495394585e-05,4.922062942872455e-09,-7.408706787681298,56.55184710328659,101.13592814589566,9.960872093706062,-23028.3895808963,97.40870678768131,33.44815289671341,-11.135928145895654,9.960872093706062,0.0007616607574834908,2.874398378954571e-08,0
2024-02-06 10:15:33.848165,-0.3972227573394775,6.738429069519043,4.338342189788818,0,7.517400000000001e-05,7.948463114362955e-05,1.9480124948923373e-09,0.0007537003845926523,2.851229520444567e-08,9.953874594280131e-05,4.955916593696249e-09,-3.373617148338625,57.22571443592824,95.23146969045337,8.02405291605117,-25764.4821035849,93.37361714833862,32.77428556407177,-5.231469690453368,8.02405291605117,0.0007643886696354258,2.9005289858737596e-08,0
2024-02-06 10:15:33.922994,0.1411815732717514,9.016477584838867,3.977013349533081,0,7.482900000000001e-05,7.952879824788124e-05,1.920582678322302e-09,0.0007509826631947755,2.8252737378702343e-08,9.81043471122683e-05,4.9218231601442494e-09,0.8970739651990405,66.19854825131581,87.96688817315419,9.85562963269712,24476.830061152086,89.10292603480096,23.801451748684194,2.033111826845812,9.85562963269712,0.0007615275786812939,2.8742479893598753e-08,0
2024-02-06 10:15:33.997952,-0.0981092303991317,9.282090187072754,1.0863802433013916,0,7.4958e-05,7.953157641399652e-05,1.9308420724879916e-09,0.0007521629208160637,2.834969026887103e-08,9.843093599900609e-05,4.934499685904925e-09,-0.6055786358526593,83.32444583469265,95.16029048566955,9.345964139406775,-6799.347545163232,90.60557863585265,6.6755541653073465,-5.160290485669549,9.345964139406775,0.0007627338856108911,2.884063759003962e-08,0
2024-02-06 10:15:34.072400,-0.2033971846103668,10.581439971923828,1.177310824394226,0,7.4448e-05,7.960846054982395e-05,1.890261363062218e-09,0.0007470977206255196,2.7967378805303432e-08,9.785369477674372e-05,4.88444710505711e-09,-1.1012078959918818,83.65127574876168,99.80190417222832,10.648676118249188,17498.280394938934,91.10120789599188,6.348724251238314,-9.80190417222831,10.648676118249188,0.0007576726580367143,2.8453561970026218e-08,0
2024-02-06 10:15:34.147910,-1.4907817840576172,9.066728591918944,2.1320810317993164,0,7.551e-05,7.870885151746124e-05,1.974327855769946e-09,0.0007575308981329201,2.8766336601864163e-08,9.961098185238248e-05,4.989300848347176e-09,-9.337217529213415,76.7670661461022,124.96180038926914,9.43259069467964,-16104.958595809148,99.33721752921342,13.232933853897803,-34.96180038926912,9.43259069467964,0.0007680953668906368,2.9262488187595e-08,0
2024-02-06 10:15:34.222910,-0.0095716323703527,9.777422904968262,2.3498356342315674,0,7.5e-05,7.909144163865038e-05,1.934088781015137e-09,0.0007527256395012138,2.8381221184767455e-08,9.846809310254459e-05,4.9387906842336686e-09,-0.056089827351430165,76.48623737981063,90.23338275104402,10.055835011904716,8309.924229667682,90.05608982735143,13.513762620189377,-0.2333827510440135,10.055835011904716,0.0007632478692156583,2.8872583340848023e-08,0
2024-02-06 10:15:34.298119,-0.4785816073417663,9.37541389465332,2.6800570487976074,0,7.5209e-05,7.904042962510046e-05,1.9506135615622e-09,0.0007547271109467744,2.8538749997189278e-08,9.899371688792117e-05,4.959425443377673e-09,-2.9222097978806576,74.04687871650891,100.12467147898579,9.762690809185452,-3897.7277017280303,92.92220979788065,15.953121283491086,-10.124671478985784,9.762690809185452,0.0007652843638130019,2.903206925792654e-08,0
2024-02-06 10:15:34.387291,-0.5599405169487,10.921232223510742,1.8712540864944456,0,8.9172e-05,7.178998741436657e-05,3.003636118123239e-09,0.0008964281458207369,4.006629042231166e-08,0.00013076869557896264,6.563511726015222e-09,-2.935031552683231,80.27729964364214,106.6589055763044,11.094522906307974,14935.54139329074,92.93503155268323,9.72270035635787,-16.658905576304395,11.094522906307974,0.0009087561139579654,4.071129013323769e-08,0
2024-02-06 10:15:34.462904,-0.1100737750530242,10.792015075683594,0.7800880670547485,0,7.5613e-05,7.633234930699225e-05,1.999440736320786e-09,0.0007492231857558488,2.8909597219888184e-08,0.00011279392144897587,4.912278963874312e-09,-0.584371316708772,85.86563284586346,98.0316560023163,10.820732092705077,-3620.9489585507395,90.58437131670878,4.134367154136543,-8.031656002316295,10.820732092705077,0.000761501463124468,2.9392057758740672e-08,0
2024-02-06 10:15:34.538210,0.067001424729824,9.186373710632324,0.5049036145210266,0,7.5306e-05,7.633896091276686e-05,1.9760056902020535e-09,0.0007461565030771494,2.8680056437652323e-08,0.000112596675225854,4.877681507284726e-09,0.41788315062987225,86.85406125482781,82.44093333003565,9.200482530947435,-21515.544070295095,89.58211684937012,3.1459387451721907,7.559066669964358,9.200482530947435,0.0007584557833581845,2.9158909661390646e-08,0
2024-02-06 10:15:34.613118,0.8710185289382935,8.674291610717773,0.3302213251590729,0,7.490800000000001e-05,7.615229494198692e-05,1.945659930286958e-09,0.0007426022306782008,2.8383793449635014e-08,0.00011243048536285766,4.832901102327573e-09,5.734066072395194,87.8198616126203,20.762764759565123,8.724164965720925,-6358.700876094796,84.2659339276048,2.1801383873796913,69.23723524043488,8.724164965720925,0.0007549157960144288,2.885796694538177e-08,0
2024-02-06 10:15:34.688112,0.7011220455169678,10.066964149475098,1.1438100337982178,0,7.499400000000001e-05,7.62198969866885e-05,1.952211934539891e-09,0.000743408104675889,2.844769189405524e-08,0.00011249386871129282,4.842572849552761e-09,3.9839787852223045,83.51784311781705,58.49292276092799,10.155965769090809,19092.20475464548,86.01602121477771,6.48215688218296,31.507077239072014,10.155965769090809,0.0007557247867392552,2.8922877058475384e-08,0
2024-02-06 10:15:34.763095,0.569512128829956,9.66016960144043,1.4285660982131958,0,7.4983e-05,7.621290849872958e-05,1.9513735541097203e-09,0.0007432996054402589,2.8439515001649593e-08,0.00011247972064256674,4.841335494811314e-09,3.373948603793566,81.58794801306885,68.2648086883575,9.781820990513078,-4989.728052728371,86.62605139620644,8.412051986931143,21.7351913116425,9.781820990513078,0.0007556152449661866,2.891457074988406e-08,0
2024-02-06 10:15:34.838110,0.8016242384910583,8.473287582397461,0.9786993861198424,0,7.5015e-05,7.623484668060672e-05,1.9538127181925897e-09,0.0007435897407552004,2.8463305231188722e-08,0.00011251823689031607,4.84493546213184e-09,5.404441682586847,83.4112998875129,50.6800906820103,8.567208201166745,-16191.598871510138,84.59555831741316,6.588700112487117,39.3199093179897,8.567208201166745,0.0007559085976741546,2.8938737506218356e-08,0
2024-02-06 10:15:34.913121,0.6987291574478149,9.82528018951416,1.3160994052886963,0,7.501099999999999e-05,7.623184597381483e-05,1.9535077848072803e-09,0.0007435531436196564,2.8460330945419967e-08,0.00011251364729273325,4.844485398363473e-09,4.067766540882822,82.37062630651346,62.03576051600693,9.937629037276869,18269.598273721516,85.93223345911717,7.6293736934865395,27.964239483993072,9.937629037276869,0.000755871611157849,2.893571614740318e-08,0
2024-02-06 10:15:34.988148,0.0598227009177207,9.246196746826172,1.3472073078155518,0,7.5027e-05,7.623791438868175e-05,1.9547275428901808e-09,0.0007437057154351472,2.8472229016292413e-08,0.00011253495374643809,4.846285787171787e-09,0.3706973309900076,81.71011439835252,87.45745284917125,9.34401950804875,-7911.9454226894295,89.62930266900999,8.289885601647489,2.5425471508287476,9.34401950804875,0.0007560254801102626,2.8947802522023678e-08,0
2024-02-06 10:15:35.063115,0.7824809551239014,9.514202117919922,1.25866961479187,0,7.4967e-05,7.62126452790005e-05,1.9501540261001506e-09,0.0007431429034692049,2.8427623557725284e-08,0.00011245677743875986,4.8395360352362314e-09,4.70162195676463,82.46388708638968,58.131897757641376,9.628944261182731,3800.6690028143316,85.29837804323537,7.536112913610328,31.86810224235863,9.628944261182731,0.0007554576553778336,2.8902491084707597e-08,0
2024-02-06 10:15:35.153101,0.3709007501602173,10.612546920776367,1.2802058458328247,0,8.9986e-05,8.48739651948316e-05,3.1598339274533923e-09,0.0008942847253752946,4.072388633653305e-08,0.000131522462710321,6.671698139135754e-09,2.001630873614799,83.12156915734673,73.84266050341807,10.695917282769809,11857.100233226034,87.9983691263852,6.878430842653279,16.157339496581923,10.695917282769809,0.0009078804536968771,4.138757089827448e-08,0
2024-02-06 10:15:35.228128,-1.0241646766662598,10.476151466369627,1.0409150123596191,0,7.5027e-05,8.976005273313354e-05,1.8536587903611768e-09,0.0007365518057886361,2.8526044501692428e-08,0.00011416163925147063,4.834103898512533e-09,-5.583580600037641,84.32569046828533,134.53527096353932,10.577436688262663,-1579.1727579024305,95.58358060003765,5.6743095317146715,-44.53527096353933,10.577436688262663,0.0007507318493002269,2.899206488550331e-08,0
2024-02-06 10:15:35.303096,-1.7731448411941528,10.361291885375977,0.3206496834754944,0,7.4968e-05,8.984257336391041e-05,1.8483605128913145e-09,0.0007359371012097597,2.848260607893598e-08,0.0001141214730929435,4.8273695466983734e-09,-9.711050344645246,88.2274399598509,169.7495974917642,10.516806947991602,-808.7416000301587,99.71105034464524,1.7725600401490977,-79.74959749176418,10.516806947991602,0.0007501325319878996,2.8947863174573826e-08,0
2024-02-06 10:15:35.378120,-1.4812101125717163,8.22921085357666,-0.4522596299648285,0,7.502399999999999e-05,8.975145142520499e-05,1.8533891455854085e-09,0.0007364576352864503,2.8523833131557866e-08,0.00011411778801444179,4.833760246009379e-09,-10.20365108204309,93.14568762626016,-163.02093549593334,8.373675026122315,-28565.95118721059,100.2036510820431,-3.145687626260147,-106.97906450406666,8.373675026122315,0.0007506317613490321,2.898981452092843e-08,0
2024-02-06 10:15:35.452673,-1.5266753435134888,9.136122703552246,0.3350071310997009,0,7.455299999999999e-05,9.045980845011306e-05,1.8109493938847708e-09,0.0007323680992337465,2.8177924671078358e-08,0.00011414540097792453,4.780004265001677e-09,-9.48665604000953,87.89999549286613,167.62342241228984,9.268856749175837,12007.319934188055,99.48665604000954,2.100004507133879,-77.62342241228983,9.268856749175837,0.000746709570237648,2.863779700412747e-08,0
2024-02-06 10:15:35.527763,-1.8233959674835205,9.877924919128418,1.3759222030639648,0,7.509e-05,8.956031430311034e-05,1.8592847968440124e-09,0.0007374733710204364,2.8572577105841615e-08,0.00011460478550414749,4.841423690072114e-09,-10.458669785743579,82.07014331839373,142.96204383598902,10.138606189760884,11582.759895925506,100.45866978574358,7.929856681606269,-52.96204383598903,10.138606189760884,0.0007516796390236799,2.903942984584634e-08,0
2024-02-06 10:15:35.647343,-1.928683876991272,8.980584144592285,1.1749178171157837,0,0.00011958,6.095298162768579e-06,3.987143896147489e-09,0.0011569809051429035,7.071471247909512e-08,0.000171348221753046,1.1202448336508383e-08,-12.120819191828616,82.54640298984205,148.6510156841676,9.26019141014075,-7345.833581034731,102.12081919182862,7.453597010157957,-58.65101568416761,9.26019141014075,0.0011696162535733319,7.170748026657899e-08,0
2024-02-06 10:15:35.677371,-2.115330696105957,9.195945739746094,1.3831008672714231,0,3.0027999999999998e-05,0.00018717009468777014,-4.666507334128234e-09,0.00034310860304176817,3.5467046606182508e-09,5.681037714092441e-05,9.864189124319614e-10,-12.954321850420733,81.44663510138489,146.8214878186298,9.53692875150535,9215.976467450364,102.95432185042074,8.553364898615119,-56.821487818629805,9.53692875150535,0.0003949475620605811,5.943772112045285e-09,0
2024-02-06 10:15:35.752410,-1.8927903175354004,9.08108615875244,-0.1627177447080612,0,7.5039e-05,9.696532721526457e-05,1.7281024035105142e-09,0.000754442344433427,2.8247637509021256e-08,8.427570950577415e-05,4.161631835459236e-09,-11.773715119027667,91.02653386199056,-175.0865268014311,9.277675251553257,-3454.9167759710717,101.77371511902767,-1.026533861990558,-94.91347319856892,9.277675251553257,0.0007653025029155927,2.8604799287741757e-08,0
2024-02-06 10:15:35.828098,-0.5958341360092163,11.31127643585205,2.979170560836792,0,7.568800000000001e-05,9.615776858008932e-05,1.7907708480961078e-09,0.0007610596660953764,2.8739417911437862e-08,8.518964844460795e-05,4.216623344114136e-09,-3.0153323674356436,75.2445051874107,101.30993291491404,11.712192371902551,32165.166477503622,93.01533236743565,14.755494812589319,-11.309932914914043,11.712192371902551,0.0007718260218583095,2.910224930387331e-08,0
2024-02-06 10:15:35.933131,-1.043307900428772,9.143301963806152,2.373764753341675,0,0.000105033,7.210745705045295e-05,4.259642371160238e-09,0.0010611794676643612,5.5476221601527595e-08,0.00016373059184189147,7.868905569717797e-09,-6.509651575684143,75.44629278512596,113.72626343331137,9.50385297027715,-21025.195906290424,96.50965157568415,14.553707214874041,-23.726263433311374,9.50385297027715,0.0010761547540477606,5.619319701865268e-08,0
2024-02-06 10:15:35.992692,-2.065079689025879,9.674527168273926,2.172760486602783,0,5.9561e-05,0.0001427797572842939,-6.260333339545655e-10,0.0006333373045173886,1.694968826920334e-08,6.0360793986514284e-05,2.773963821523164e-09,-12.049262298108973,77.34221216961211,133.54446422906474,10.12827320839243,10483.709778467135,102.04926229810897,12.657787830387884,-43.544464229064744,10.12827320839243,0.0006520319208705934,1.718658562488521e-08,0
2024-02-06 10:15:36.067677,-0.540797233581543,9.083478927612305,2.3282995223999023,0,7.4985e-05,0.00012268323445714546,1.4212172583554148e-09,0.0007779990475288633,2.7833914216184032e-08,9.507296877594298e-05,3.972668999947235e-09,-3.4071600667294804,75.62332638624453,103.07630241193553,9.392711522357846,-9809.451037335259,93.40716006672949,14.376673613755479,-13.076302411935528,9.392711522357846,0.0007933300469316392,2.8151886936269132e-08,0
2024-02-06 10:15:36.158108,-1.103130578994751,7.831988334655762,2.9624202251434326,0,9.0431e-05,0.00010998717996061874,3.2181308689038077e-09,0.0009086372011953595,4.0859805965081207e-08,0.00013593319738622016,5.756729621217621e-09,-8.017334315220108,69.28106366057081,110.42406169806542,8.445878991486682,-10470.220730404004,98.01733431522011,20.71893633942919,-20.4240616980654,8.445878991486682,0.0009253089091235785,4.1388646338401574e-08,0
2024-02-06 10:15:36.218072,-2.5125534534454346,5.848267555236816,1.366350531578064,0,5.9964000000000004e-05,0.0001650667026687963,-9.719024521313866e-10,0.000700239023096681,1.6350990002328406e-08,6.999086806370325e-05,2.6197853701862128e-09,-23.249498978894408,76.849674873868,151.46223064720127,6.5101514597741765,-32281.494425196866,113.24949897889441,13.150325126132003,-61.462230647201245,6.5101514597741765,0.00072282807596942,1.6588030136774654e-08,0
2024-02-06 10:15:36.293105,0.3517574965953827,11.646284103393556,3.682685613632202,0,7.5033e-05,0.00014878618553190961,1.3928221340168312e-09,0.0008320517225686314,2.7896034625543696e-08,0.00010803283089978998,3.961104930026652e-09,1.7300019993446265,72.45246163162976,84.54385640077426,12.219731587977785,76094.25357114348,88.26999800065538,17.547538368370247,5.456143599225733,12.219731587977785,0.0008521258654604877,2.821026503940049e-08,1
2024-02-06 10:15:36.368080,3.730543613433838,14.919781684875488,0.0526439771056175,0,7.4975e-05,0.00014866779879971879,1.3841959684712152e-09,0.0008312813066607718,2.784779796769605e-08,0.0001079245063416586,3.954842167246651e-09,14.03840552863729,89.7978344957658,0.8084820399771571,15.379194145481211,42140.21417143616,75.96159447136272,0.2021655042342001,89.19151796002284,15.379194145481211,0.0008513391946061712,2.8161261099186953e-08,0
2024-02-06 10:15:36.443051,2.493410348892212,8.372785568237305,-2.340264081954956,0,7.4971e-05,0.00014865535089179412,1.3836013221718309e-09,0.0008312347215262654,2.784447293563967e-08,0.00010792908158186831,3.954410460070803e-09,16.58349882539819,105.61612540947478,-43.18529349252407,9.04419533805712,-84499.3238375384,73.4165011746018,-15.616125409474776,133.18529349252407,9.04419533805712,0.000851292113361046,2.815788322599913e-08,0
2024-02-06 10:15:36.518098,1.0457007884979248,8.880082130432129,-1.6678569316864014,0,7.5047e-05,0.00014878983711501495,1.3949042393160903e-09,0.0008318903304988149,2.7907671687616627e-08,0.00010777677298334993,3.9626072825442815e-09,6.7161069004880956,100.63736562610403,-57.9134101130127,9.095663556160131,685.8131318108792,83.2838930995119,-10.637365626104035,147.9134101130127,9.095663556160131,0.0008519364826093814,2.822208626831712e-08,0
2024-02-06 10:15:36.593113,1.5721405744552612,8.992548942565918,-1.306527853012085,0,7.5015e-05,0.0001487479516532077,1.3901436346957984e-09,0.0008316043684016469,2.7881055772434217e-08,0.00010782436313990511,3.959157664366309e-09,9.916628957351097,98.26666278430709,-39.72828516872553,9.221961694834148,1683.6384546292943,80.0833710426489,-8.266662784307083,129.72828516872553,9.221961694834148,0.0008516559586782994,2.819504743251877e-08,0
2024-02-06 10:15:36.683096,1.9693633317947388,9.679313659667969,-1.3926725387573242,0,8.9983e-05,0.0001752525668875827,3.814963515455073e-09,0.0009713445881167652,4.137432576301801e-08,8.762354740790286e-05,5.4218898269061034e-09,11.500481506323483,98.1876021511977,-35.26676310856843,9.975321631659872,8372.247389237125,78.49951849367652,-8.1876021511977,125.26676310856843,9.975321631659872,0.0009909095100586933,4.1902096227559985e-08,0
2024-02-06 10:15:36.758107,1.742037057876587,9.140909194946287,-1.0648441314697266,0,7.501099999999999e-05,0.00014746902357050314,1.3990696892858415e-09,0.0008304563998271228,2.788604356727006e-08,0.00010602051720122257,3.97227035924219e-09,10.789811056527256,96.64455984253476,-31.43593338166808,9.366152200642183,-8121.067990263945,79.21018894347274,-6.644559842534755,121.4359333816681,9.366152200642183,0.0008500854633472322,2.820226504446188e-08,0
2024-02-06 10:15:36.833105,1.6846072673797607,9.547703742980955,-1.6870001554489136,0,7.499799999999999e-05,0.00014744675038238898,1.3971527367551476e-09,0.0008303349238430263,2.7875248423666203e-08,0.00010603840418908754,3.9708919762531525e-09,10.006340782476498,100.02026636630717,-45.040663798300464,9.840859613546263,6329.600961413364,79.9936592175235,-10.020266366307153,135.04066379830047,9.840859613546263,0.000849965159941688,2.819130173542895e-08,0
2024-02-06 10:15:36.908103,1.3615647554397583,9.65299129486084,-1.9119335412979128,0,7.499799999999999e-05,0.00014744675038238898,1.3971527367551476e-09,0.0008303349238430263,2.7875248423666203e-08,0.00010603840418908754,3.9708919762531525e-09,8.028666093522745,101.20336864402712,-54.543803296662574,9.934263404412773,1245.4170893425214,81.97133390647727,-11.20336864402712,144.54380329666256,9.934263404412773,0.000849965159941688,2.819130173542895e-08,0
2024-02-06 10:15:36.983122,1.5051392316818235,9.502238273620604,-1.6152129173278809,0,7.501900000000001e-05,0.0001474768507742538,1.400249434567295e-09,0.0008305360537534956,2.789268756893098e-08,0.00010600136915127195,3.973118393873229e-09,9.000779624533397,99.6470631819531,-47.02033079331902,9.755351817526156,-2384.883654629052,80.9992203754666,-9.647063181953097,137.02033079331903,9.755351817526156,0.0008501622482565695,2.8209012532677155e-08,0
2024-02-06 10:15:37.058094,1.3831008672714231,9.569239616394045,-2.038757801055908,0,7.4972e-05,0.00014740897713192837,1.3933196176114987e-09,0.0008300878740230801,2.7853662906628224e-08,0.00010608723746315397,3.968134311617789e-09,8.224355049486837,102.02722637482435,-55.84688557599581,9.881287781275198,1679.773298685397,81.77564495051317,-12.027226374824346,145.84688557599583,9.881287781275198,0.0008497233591539084,2.8169379950363417e-08,0
2024-02-06 10:15:37.133144,1.3208853006362915,9.509416580200195,-1.90954065322876,0,7.505000000000001e-05,0.00014751443259247677,1.4048216305907516e-09,0.0008308319416147474,2.7918438779438106e-08,0.00010593325382343685,3.976403110777967e-09,7.907948869710482,101.35428780845753,-55.32725314440214,9.78877352785101,-1232.701577937213,82.09205113028952,-11.35428780845752,145.32725314440214,9.78877352785101,0.0008504493384652799,2.8235164766553317e-08,0
2024-02-06 10:15:37.208082,1.462066888809204,9.396949768066406,-1.9334697723388672,0,7.4938e-05,0.00014735858726986782,1.3883087414784601e-09,0.0008297731850992444,2.782544489234212e-08,0.00010614846240726864,3.964526534669048e-09,8.843714503656965,101.62663593343966,-52.90386120155333,9.704566445311384,-1123.6900176095696,81.15628549634303,-11.626635933439658,142.90386120155335,9.704566445311384,0.0008494148503666178,2.814072236568437e-08,0
2024-02-06 10:15:37.282355,0.7322298884391785,10.526402473449709,-2.787737846374512,0,7.427300000000001e-05,0.00014662898359143274,1.2905578741670784e-09,0.0008231486704789404,2.727584837536238e-08,0.00010771826394049083,3.893415848158418e-09,3.9791571771946264,104.83328156582915,-75.28306882555124,10.913880700405361,16282.017086881866,86.02084282280538,-14.833281565829147,165.28306882555125,10.913880700405361,0.0008430166172304417,2.75825330814453e-08,0
2024-02-06 10:15:37.357300,-0.8303391337394714,12.534052848815918,0.1698964685201645,0,7.4945e-05,0.00014659601888501183,1.3890814749991612e-09,0.0008308969834672214,2.7831607715088274e-08,0.00010683866923753179,3.9655069777062316e-09,-3.790116021899462,89.22341523434142,168.43626803139384,12.56267522082559,22000.060316501815,93.79011602189946,0.7765847656585847,-78.43626803139385,12.56267522082559,0.0008504673368991367,2.8146992396008918e-08,0
2024-02-06 10:15:37.447337,-0.44268798828125,7.798487663269043,3.6491849422454834,0,9.0037e-05,0.00013698975622224345,3.529019733958511e-09,0.0009843263341714147,4.152928286998943e-08,0.0001356574575631694,5.795382750544324e-09,-3.2489583663685653,64.9234634479407,96.91683687560898,8.621422923847266,-43773.69633571002,93.24895836636857,25.0765365520593,-6.916836875608981,8.621422923847266,0.001003029147754774,4.207994507129938e-08,0
2024-02-06 10:15:37.522901,-2.663306713104248,10.052606582641602,1.6558923721313477,0,7.556400000000001e-05,0.0001594662868788196,1.383715578057669e-09,0.0008551468906608824,2.8217934878490517e-08,9.726726557768147e-05,4.1098229915355575e-09,-14.838850405699295,80.64608332215373,148.12900539112255,10.530435950212041,25263.525307881726,104.83885040569929,9.353916677846277,-58.12900539112256,10.530435950212041,0.0008753094436888319,2.8549205989474477e-08,0
2024-02-06 10:15:37.598109,-0.7992312908172607,8.279461860656738,2.10097336769104,0,7.5208e-05,0.00016008261864351763,1.3268358728746918e-09,0.0008518837824779752,2.7914083418671794e-08,9.659854347599308e-05,4.075314877524003e-09,-5.513780113824509,75.76132566504302,110.82731565308534,8.579181106028592,-25944.77773885024,95.51378011382451,14.23867433495698,-20.827315653085332,8.579181106028592,0.0008721603649802204,2.8241188676985308e-08,0
2024-02-06 10:15:37.672889,-1.555390238761902,9.12415885925293,2.0076498985290527,0,7.478e-05,0.00016058650765084757,1.2582126798476971e-09,0.0008481594076439145,2.7550274175985706e-08,9.571929809702197e-05,4.034158859427377e-09,-9.674184653909993,77.59057525164751,127.76608294503717,9.47101746375664,11926.134765018023,99.67418465390999,12.409424748352507,-37.76608294503717,9.47101746375664,0.0008685186188231996,2.7872480047939954e-08,0
2024-02-06 10:15:37.747917,-1.100737690925598,9.863567352294922,2.292405843734741,0,7.5028e-05,0.00016025714778756633,1.2979972931220607e-09,0.0008505138856941465,2.776090966435963e-08,9.625250500906268e-05,4.057963363012531e-09,-6.367650940974939,76.91608146290734,115.64878307169933,10.186103716822819,9530.925162155183,96.36765094097494,13.083918537092664,-25.64878307169932,10.186103716822819,0.000870816150456617,2.808593899126821e-08,0
2024-02-06 10:15:37.822866,-1.1820966005325315,9.39934253692627,2.093794584274292,0,7.4949e-05,0.00016034731974207893,1.2853334166546401e-09,0.0008497530007535223,2.7693749122344948e-08,9.607925009215633e-05,4.050366258686033e-09,-7.168098930586519,77.44185042103884,119.44783142428065,9.702008465292044,-6458.995470663715,97.16809893058652,12.558149578961178,-29.44783142428065,9.702008465292044,0.0008700704842346713,2.8017874460295037e-08,0
2024-02-06 10:15:37.898093,-1.0935590267181396,9.36584186553955,2.261298179626465,0,7.5227e-05,0.00016003100360989107,1.329866003600564e-09,0.0008523613613854651,2.7930343018682267e-08,9.668460798633855e-05,4.077160434958944e-09,-6.659720886328578,76.42622597139797,115.80831267469092,9.696820852856469,-68.95944854341415,96.65972088632857,13.57377402860204,-25.808312674690928,9.696820852856469,0.0008726269110683812,2.8257668727996308e-08,0
2024-02-06 10:15:37.973041,-1.4716384410858154,8.94947624206543,1.9143264293670652,0,7.4948e-05,0.00016038884865664973,1.2851674342093813e-09,0.0008498063745094542,2.7692890619524923e-08,9.610210835338395e-05,4.050266688029552e-09,-9.338063302578975,77.92616930701634,127.55128209814542,9.269492455725302,-5701.66511622947,99.33806330257899,12.073830692983663,-37.55128209814541,9.269492455725302,0.000870132789958104,2.8017003880555924e-08,0
2024-02-06 10:15:38.048060,-1.0576653480529783,9.502238273620604,2.4431591033935547,0,7.501900000000001e-05,0.00016029905837213528,1.2965518549089042e-09,0.0008504614103747611,2.775325012588832e-08,9.625679908979696e-05,4.057095429243786e-09,-6.351276528604524,75.58077426914207,113.40821646580888,9.868141395502352,7979.964272744901,96.35127652860453,14.419225730857931,-23.40821646580887,9.868141395502352,0.000870773087562216,2.8078175912700928e-08,0
2024-02-06 10:15:38.122999,-0.983485221862793,9.224660873413086,2.931312322616577,0,7.493900000000001e-05,0.0001603807043949319,1.2837246643982215e-09,0.0008497123344088798,2.7685243176096976e-08,9.604182023275655e-05,4.049403484470884e-09,-6.085588893601418,72.37135063762636,108.5471288367575,9.72903917886163,-1856.2059360376109,96.08558889360141,17.628649362373633,-18.547128836757498,9.72903917886163,0.0008700327883605442,2.8009253958534016e-08,0
2024-02-06 10:15:38.213090,-2.0770442485809326,8.695828437805176,2.759022951126098,0,9.0091e-05,0.00013719413312685024,3.538151633463242e-09,0.0009854779614306692,4.158864485737739e-08,0.00013915180026663105,5.831230353374244e-09,-13.43369986718185,72.39674530752332,126.97311998196245,9.356481853514435,-4135.3445443739665,103.43369986718186,17.603254692476686,-36.973119981962455,9.356481853514435,0.0010046652507912372,4.214424213921227e-08,0
2024-02-06 10:15:38.288112,-2.0818300247192383,8.877689361572266,2.739879846572876,0,7.5022e-05,0.0001685291713390304,1.2346793959650646e-09,0.0008530702915712599,2.7736103045134356e-08,9.772031713736813e-05,4.046517384793813e-09,-13.197472174271764,72.8484487992736,127.22848861520242,9.521256546593632,2196.351644573553,103.19747217427177,17.15155120072641,-37.22848861520242,9.521256546593632,0.0008750315790502206,2.8056909100729014e-08,0
2024-02-06 10:15:38.363059,-2.010042905807495,8.676684379577637,2.6106626987457275,0,7.4947e-05,0.00016868261657392516,1.2220339539183285e-09,0.0008524120025559668,2.7672147459104585e-08,9.751967179191868e-05,4.0391958852089645e-09,-13.043077906745598,73.25437720818492,127.59396503620148,9.281200570649032,-3203.009806191038,103.0430779067456,16.745622791815084,-37.59396503620149,9.281200570649032,0.0008743970114439452,2.7992074152910617e-08,0
2024-02-06 10:15:38.438093,-2.3976938724517822,8.300997734069824,3.350071430206299,0,7.5034e-05,0.00016849088002407088,1.2367010010203415e-09,0.0008531505317279105,2.7746339429345934e-08,9.77789637265281e-05,4.047691375854017e-09,-16.111047449927824,68.02225095888443,125.59183866522761,9.267064145375798,-188.40026219092826,106.11104744992782,21.977749041115583,-35.591838665227606,9.267064145375798,0.0008751089830337339,2.8067286768915953e-08,0
2024-02-06 10:15:38.513080,-1.6702498197555542,8.93272590637207,1.9597917795181277,0,7.498699999999999e-05,0.00016858647670083777,1.2287796831373048e-09,0.00085274553922236,2.7706250871678595e-08,9.765418194109955e-05,4.043098696930828e-09,-10.590924729680598,77.62567148951477,130.43958818207162,9.296456873337874,391.9709811310766,100.5909247296806,12.374328510485237,-40.43958818207162,9.296456873337874,0.0008747186370717278,2.8026645963211612e-08,0
2024-02-06 10:15:38.588160,2.577162027359009,12.706341743469238,-1.0098072290420532,0,7.507999999999999e-05,0.00016862864811849134,1.2444601864414037e-09,0.0008537517558680777,2.77856029959003e-08,9.76983562226967e-05,4.052182589955444e-09,11.46547523427485,94.54389981446955,-21.39669424465298,13.00432986573763,49385.628561531106,78.53452476572515,-4.543899814469547,111.39669424465298,13.00432986573763,0.0008757126528849019,2.8107091609481043e-08,0
2024-02-06 10:15:38.663109,2.9767775535583496,11.387849807739258,-2.1392598152160645,0,7.4949e-05,0.00016826486507594127,1.2223936613271703e-09,0.0008521735863214737,2.7673864885986894e-08,9.790462011409559e-05,4.0393705950053855e-09,14.649295438078614,100.63928032947874,-35.7028958806942,11.96330892370477,-13889.724239587722,75.35070456192139,-10.639280329478739,125.7028958806942,11.96330892370477,0.0008741271078525779,2.799381286632647e-08,0
2024-02-06 10:15:38.738186,1.9238981008529663,9.6697416305542,-0.1651106625795364,0,7.5077e-05,0.00016857850831782358,1.2439516372243705e-09,0.0008535212721735245,2.778302935693057e-08,9.775714040351667e-05,4.051892947678512e-09,11.25266119433503,90.97822933191975,-4.905156278952264,9.860656602632305,-28006.61082718361,78.74733880566498,-0.9782293319197438,94.90515627895228,9.860656602632305,0.0008754848565333652,2.810448313673934e-08,0
2024-02-06 10:15:38.813075,1.5266753435134888,8.210067749023438,-1.6630711555480957,0,7.4889e-05,0.00016825415441405314,1.2122893669275731e-09,0.0008518405700918442,2.7622725343757618e-08,9.792898949442067e-05,4.0334984514681055e-09,10.533928272831599,101.45116557796902,-47.44851635296312,8.514796281559699,-17971.40195586277,79.4660717271684,-11.451165577969023,137.4485163529631,8.514796281559699,0.0008738031267484595,2.7941970415198547e-08,0
2024-02-06 10:15:38.903090,3.4745025634765625,8.025814056396484,-2.220618724822998,0,9.0015e-05,0.0002060780629246189,4.0433639266599505e-09,0.000974632544186235,4.143634150704273e-08,6.855664292917409e-05,5.292629289487753e-09,23.40855396821162,105.46594402508592,-32.58339688420563,9.02313730652987,5647.292395380452,66.59144603178838,-15.46594402508592,122.58339688420563,9.02313730652987,0.0009985373190298972,4.1968215522316774e-08,0
2024-02-06 10:15:38.962644,1.208418607711792,10.066964149475098,-1.0313433408737185,0,5.9554000000000006e-05,0.0001347548320268347,-1.1476914798981627e-09,0.0006990704857217081,1.594500751002981e-08,0.00011808565117076792,2.4499738291985868e-09,6.844921784062105,95.84944745353117,-40.47960620946417,10.191551000953954,19619.399107097484,83.1550782159379,-5.849447453531163,130.47960620946418,10.191551000953954,0.0007216665641237576,1.617290425346344e-08,0
2024-02-06 10:15:39.052911,1.651106595993042,9.286876678466797,-0.5503688454627991,0,9.0267e-05,0.00017866713081752796,3.6653728925212903e-09,0.0009962777423959976,4.1979622575119345e-08,9.379608798129119e-05,5.703735756487181e-09,10.0812337020748,93.39155713514201,-18.434948202411874,9.448552127095361,-8231.124041549987,79.9187662979252,-3.3915571351420106,108.43494820241189,9.448552127095361,0.001016508233979847,4.252359664434007e-08,0
2024-02-06 10:15:39.127239,1.7157150506973269,10.002355575561523,-0.4283305406570434,0,7.432800000000001e-05,0.00015183524570422908,1.0314342028311503e-09,0.000842552205947519,2.73250673017957e-08,0.00010159583273897327,4.146559844307035e-09,9.733285178936214,92.45207711739204,-14.01743962818184,10.157473221584961,9537.739404929504,80.2667148210638,-2.452077117392032,104.01743962818185,10.157473221584961,0.0008621310079187615,2.765713503067254e-08,0
2024-02-06 10:15:39.202762,1.277812957763672,9.74870777130127,-0.3421858549118042,0,7.5523e-05,0.0001536238786892845,1.2139460296562732e-09,0.0008543534662972694,2.8338968440961954e-08,0.00010113544919262088,4.267691785261161e-09,7.467479402912875,92.01029304537526,-14.991503113603343,9.838048603486376,-4229.501186374818,82.53252059708713,-2.0102930453752608,104.99150311360334,9.838048603486376,0.0008739270682162745,2.8684211518442363e-08,0
2024-02-06 10:15:39.277475,1.541032791137695,9.655384063720703,0.0861446931958198,0,7.4713e-05,0.00015248224616097944,1.0899730490919162e-09,0.0008464948091040855,2.7650124889424404e-08,0.00010123914586311585,4.185730074263587e-09,9.068123101671201,89.48882443634758,3.1995398210519115,9.777967293332452,-804.1613929828028,80.9318768983288,0.5111755636524193,86.80046017894809,9.777967293332452,0.0008660563849366582,2.798638568845767e-08,0
2024-02-06 10:15:39.352674,1.6941789388656616,9.82528018951416,0.3996156454086303,0,7.5199e-05,0.00015326840261137024,1.1642704567435964e-09,0.0008512286105176216,2.8062671680392475e-08,0.00010135718562539674,4.234960982815296e-09,9.783342084463312,87.6709389692113,13.272090055154647,9.978279698595882,2663.764215793165,80.2166579155367,2.3290610307886976,76.72790994484535,9.978279698595882,0.0008708355927961965,2.8404294782020477e-08,0
2024-02-06 10:15:39.427447,1.217990159988403,9.633848190307615,0.9930568337440492,0,7.477300000000001e-05,0.00015264811059331434,1.0991102394310008e-09,0.0008470838161727197,2.7700931133507446e-08,0.00010106054638733723,4.191846005896585e-09,7.205573481917813,84.11473830509807,39.19119330279743,9.761182964106741,-2903.4107831589104,82.79442651808219,5.885261694901932,50.80880669720257,9.761182964106741,0.0008666404510092717,2.8037853019068623e-08,0
2024-02-06 10:15:39.503054,0.2919347882270813,10.129179954528809,1.170132040977478,0,7.5607e-05,0.0001532777492967202,1.226681323005143e-09,0.0008553249989091163,2.841083560939656e-08,0.0001019625961480961,4.276506656333859e-09,1.650874232767097,83.41034921039629,75.99132885949878,10.200721614921541,5813.465033856654,88.3491257672329,6.589650789603712,14.008671140501225,10.200721614921541,0.0008749121631350245,2.8757065849527017e-08,0
2024-02-06 10:15:39.577522,1.0098072290420532,9.648205757141112,0.368507832288742,0,7.4468e-05,0.00015253640721788543,1.0525201608700766e-09,0.0008440617777463204,2.7443034840091298e-08,0.00010108634074027099,4.160870286775935e-09,5.974976948530802,87.81268290695076,20.04848680105395,9.70790312036614,-6617.855918722146,84.0250230514692,2.1873170930492454,69.95151319894605,9.70790312036614,0.0008636701271107375,2.7776623291301586e-08,0
2024-02-06 10:15:39.653016,0.0622156113386154,8.423036575317383,1.098344802856445,0,7.5494e-05,0.00015308635493500072,1.2093046378545073e-09,0.0008533323250628716,2.8313798014832414e-08,0.00010183883614210047,4.2649709025165914e-09,0.42319976790452485,82.5706797921673,86.75795191458438,8.49457339937624,-16071.869565659528,89.57680023209548,7.429320207832701,3.242048085415627,8.49457339937624,0.000872916168719121,2.8658743038227923e-08,0
2024-02-06 10:15:39.742402,-0.7154794931411743,9.75588607788086,1.3113136291503906,0,8.938599999999999e-05,0.00014854878401200015,3.304462312980373e-09,0.0009796031218119864,4.104536762882516e-08,0.00011857632361081993,5.7959746021603745e-09,-4.194462290500385,82.3446101625795,118.61778382752777,9.869588010838685,15382.88559128326,94.1944622905004,7.655389837420504,-28.617783827527774,9.869588010838685,0.0009978724177049344,4.158407142827893e-08,0
2024-02-06 10:15:39.818064,-0.4187589287757873,9.885103225708008,2.3211207389831543,0,7.5662e-05,0.00015633192806319433,1.2123708667203893e-09,0.0008448266532107597,2.852613051261908e-08,9.365055897668755e-05,4.3396737338448985e-09,-2.4257492834194188,76.78576763482069,100.22685848491307,10.162589547367837,3872.5058355469337,92.42574928341942,13.214232365179322,-10.226858484913073,10.162589547367837,0.0008642581633423517,2.8879798012757517e-08,0
2024-02-06 10:15:39.892336,-0.1746822893619537,8.492430686950684,2.3211207389831543,0,7.427200000000001e-05,0.00015674436970980005,9.947828397681605e-10,0.0008320542671414621,2.73606982729743e-08,9.0424201149501e-05,4.211741775557199e-09,-1.1783607253502926,74.71346736025157,94.30383757067021,8.80565127402943,-18269.84965179889,91.1783607253503,15.286532639748428,-4.303837570670216,8.80565127402943,0.0008515043376622126,2.7700833411054797e-08,0
2024-02-06 10:15:39.967704,-0.3732936680316925,9.191160202026367,2.141652822494507,0,7.5368e-05,0.00015644407888514833,1.1664101095981908e-09,0.0008417448749486214,2.827794020283966e-08,9.286980106119074e-05,4.312186888768657e-09,-2.3257567826669048,76.88342633865858,99.88741860080087,9.444757849410678,8479.813387395823,92.32575678266691,13.11657366134143,-9.887418600800862,9.444757849410678,0.0008611817370739106,2.8628611045994123e-08,0
2024-02-06 10:15:40.043064,-0.8494823575019836,9.253376007080078,2.9672060012817383,0,7.536e-05,0.00015644896998925046,1.1651585374026926e-09,0.0008416710968037849,2.8271206538952647e-08,9.284936562589563e-05,4.311444012101908e-09,-5.24518953952106,72.22092873035264,105.97590472987304,9.754532241894264,4110.594380090049,95.24518953952106,17.779071269647357,-15.975904729873038,9.754532241894264,0.0008611083091590251,2.862179699206342e-08,0
2024-02-06 10:15:40.118070,-0.7800880670547485,8.908797264099121,2.7422726154327397,0,7.5006e-05,0.000156737403954397,1.1097245492146685e-09,0.0008384563921347863,2.7973823973410527e-08,9.18387879107372e-05,4.278754208925925e-09,-5.004271796110257,72.89078376715882,105.87934218841582,9.353890376871728,-5341.464216496488,95.00427179611026,17.109216232841177,-15.879342188415807,9.353890376871728,0.0008579103089921229,2.832091195302313e-08,0
2024-02-06 10:15:40.193097,-1.3854937553405762,8.75086498260498,2.522125244140625,0,7.5027e-05,0.00015671466534526187,1.1130157959423135e-09,0.0008386418185883767,2.7991433504623112e-08,9.189406408826269e-05,4.280683403871914e-09,-8.996761031855948,73.92225709992057,118.78156916336118,9.211859021771946,-1893.0698961678038,98.99676103185595,16.077742900079425,-28.78156916336118,9.211859021771946,0.0008580932963461228,2.8338726227724823e-08,0
2024-02-06 10:15:40.268042,-0.7489802241325378,9.667348861694336,3.792759418487549,0,7.4945e-05,0.00015680217877842026,1.100161605333242e-09,0.0008378866718207603,2.7922695836516335e-08,9.163515381709492e-05,4.273158705937793e-09,-4.43015484002496,68.57859532711646,101.17083116685026,10.411706363337876,16009.705004549063,94.43015484002497,21.421404672883543,-11.170831166850261,10.411706363337876,0.000857343571445901,2.8269191422157586e-08,0
2024-02-06 10:15:40.343205,0.4187589287757873,11.957362174987791,3.500824451446533,0,7.5163e-05,0.00015676618465722638,1.134340556947728e-09,0.0008402437653237586,2.810561205416509e-08,9.243015445891775e-05,4.293221824539879e-09,2.0057364789797028,73.68125437890914,83.1788472624798,12.466340323611583,27335.7098608851,87.9942635210203,16.318745621090866,6.821152737520202,12.466340323611583,0.0008597258605338859,2.8454242409051625e-08,0
2024-02-06 10:15:40.417827,0.7513731122016907,10.593403816223145,2.134474039077759,0,7.462199999999999e-05,0.00015644966394014198,1.0496156699021386e-09,0.000834143783123136,2.76526902223102e-08,9.090580621723091e-05,4.24362944717698e-09,4.057103145259568,78.60795655409873,70.60701793020239,10.832393336230348,-21896.3172707946,85.94289685474043,11.392043445901272,19.39298206979762,10.832393336230348,0.0008535433286447533,2.799609545044633e-08,0
2024-02-06 10:15:40.508040,1.3137065172195437,7.209832191467285,0.9260554313659668,0,9.0213e-05,0.00017254799219129522,3.6143168982747583e-09,0.0009729289094210868,4.17397253970387e-08,0.00011476416370407498,5.846929697698521e-09,10.326599137965918,82.68080910796367,35.18069987369213,7.386818239571451,-38193.77580458357,79.67340086203409,7.319190892036337,54.81930012630787,7.386818239571451,0.0009947533793193408,4.230194498780382e-08,0
2024-02-06 10:15:40.583107,0.844696581363678,9.265339851379396,1.1964540481567385,0,7.506699999999999e-05,0.00015620240552572447,1.124690136363767e-09,0.0008481624315406089,2.794860067193577e-08,9.869039941564953e-05,4.230438291192846e-09,5.209105048361441,82.64198623379245,54.77790755869556,9.380380438205973,26557.10496802221,84.79089495163856,7.358013766207559,35.22209244130444,9.380380438205973,0.0008680544318795461,2.8289323349238192e-08,0
2024-02-06 10:15:40.657321,0.6604426503181458,10.18182373046875,2.3522286415100098,0,7.4214e-05,0.0001555604636434122,9.917232726631322e-10,0.0008398682162729507,2.72286556006433e-08,9.717688624850668e-05,4.146900893857085e-09,3.7112839759263943,76.99161567878404,74.31668394131611,10.4708499442326,14693.582154669299,86.28871602407361,13.008384321215962,15.683316058683879,10.4708499442326,0.0008596633211760383,2.756047873117334e-08,0
2024-02-06 10:15:40.732336,1.2323477268218994,8.320141792297363,2.270869731903076,0,7.5015e-05,0.00015631852618945677,1.1166308080911953e-09,0.0008472782534648185,2.7904357761773272e-08,9.902843714705861e-05,4.225481125877009e-09,8.425177434759185,74.73372813285185,61.51235448165588,8.712077232383207,-23445.613701918206,81.57482256524082,15.26627186714815,28.487645518344113,8.712077232383207,0.0008672499938242871,2.8244552345607417e-08,0
2024-02-06 10:15:40.808032,0.8351249098777771,9.291662216186523,2.069865465164185,0,7.5696e-05,0.000157022500622253,1.2233234277205829e-09,0.0008532750727297073,2.848339616934251e-08,0.00010050645748166002,4.293422757498088e-09,5.135884961389404,77.44151135347177,68.0274907531944,9.555980504306502,11148.58475907968,84.86411503861059,12.558488646528238,21.97250924680561,9.555980504306502,0.0008734048107487532,2.8831126521922934e-08,0
2024-02-06 10:15:40.883030,0.4594383537769317,9.36584186553955,2.333085298538208,0,7.499799999999999e-05,0.0001565706980432375,1.1138794013863248e-09,0.0008467636038051847,2.789008267123182e-08,9.896982766512786e-05,4.223805533981858e-09,2.8083747843963613,76.01198813300199,78.85968110761696,9.662989416400587,1426.8235432156093,87.19162521560364,13.98801186699801,11.140318892383048,9.662989416400587,0.0008667860237699703,2.8230089831912933e-08,0
2024-02-06 10:15:40.957560,0.7489802241325378,9.19355297088623,2.254119396209717,0,7.452999999999999e-05,0.0001562879280960067,1.0406704828697422e-09,0.0008424207054134611,2.749481354287466e-08,9.789642176655686e-05,4.177738831614844e-09,4.6574858470533576,76.22371134764552,71.61980978718066,9.49544321540609,-2248.037045411207,85.34251415294665,13.776288652354484,18.38019021281934,9.49544321540609,0.0008623701471946669,2.7829862891443478e-08,0
2024-02-06 10:15:41.033020,1.1725249290466309,9.40173625946045,1.904754877090454,0,7.546e-05,0.00015718142799223502,1.1864337334507757e-09,0.0008510675149055723,2.8282285565323017e-08,9.983029830364146e-05,4.269681756447487e-09,7.108862046288731,78.54711590374377,58.38446765333441,9.664137340885064,2235.543671865559,82.89113795371127,11.452884096256225,31.615532346665592,9.664137340885064,0.0008711991762465223,2.8627355520615053e-08,0
2024-02-06 10:15:41.108085,0.1005021408200264,9.389771461486816,2.79491662979126,0,7.5065e-05,0.00015693000514593636,1.124396725405987e-09,0.0008473561921306852,2.7946846883183356e-08,9.890211318103232e-05,4.230432105179264e-09,0.6132341605732767,73.4240763841621,87.94059385062846,9.797421484592025,1775.5830774257074,89.38676583942673,16.5759236158379,2.05940614937154,9.797421484592025,0.0008674221410875976,2.8287578095424332e-08,0
2024-02-06 10:15:41.183067,0.0981092303991317,11.49313735961914,2.249333620071411,0,7.4982e-05,0.00015692176277403076,1.1113718770373074e-09,0.0008464895514146093,2.7876552284826222e-08,9.8692776795663e-05,4.222231917245231e-09,0.4890838876411747,78.92655020733774,87.50251179085248,11.711589709452184,25528.36980688911,89.51091611235883,11.073449792662261,2.4974882091475137,11.711589709452184,0.0008665502088614682,2.8216388094522727e-08,0
2024-02-06 10:15:41.273004,0.466617077589035,10.327791213989258,2.1057591438293457,0,8.9937e-05,0.00016114450374201227,3.4897123849110207e-09,0.001009655544823766,4.1755877241948685e-08,0.00013125798293773093,5.941688723151685e-09,2.5869055052695664,78.47578308765638,77.50566642211655,10.550603036256854,-12908.888146094821,87.41309449473043,11.524216912343629,12.49433357788345,10.550603036256854,0.0010308251686704769,4.2320621943172306e-08,0
2024-02-06 10:15:41.347917,-0.9739136099815368,8.04017162322998,0.9619490504264832,0,7.491299999999999e-05,0.00016495531529334476,1.040050544317417e-09,0.0008716754079905751,2.7623319124407343e-08,0.00010821335898248113,4.14278000264705e-09,-6.906643529439103,83.17740011900818,135.35411088394895,8.155869875513972,-31966.857030727413,96.90664352943911,6.822599880991828,-45.354110883948934,8.155869875513972,0.0008937216591318203,2.7951602650544312e-08,0
2024-02-06 10:15:41.422857,-1.217990159988403,8.899225234985352,1.5649619102478027,0,7.494000000000001e-05,0.00016492572459245015,1.0445039383558783e-09,0.0008719040898481611,2.7646857447628183e-08,0.00010824747228045026,4.145702223869102e-09,-7.79335118650752,80.02630002823953,127.89317304940967,9.117500512385789,12832.00743090228,97.79335118650752,9.973699971760475,-37.89317304940968,9.117500512385789,0.000893943371686038,2.797546357320479e-08,0
2024-02-06 10:15:41.498094,-0.3589362204074859,10.552724838256836,2.565197467803955,0,7.5237e-05,0.00016469155102496138,1.0934521037850617e-09,0.0008747927044340375,2.790624192157908e-08,0.00010886080094809092,4.177942802443539e-09,-1.9480850142113324,76.33731308762576,97.96541690732072,10.8659594500951,23239.349491730274,91.94808501421133,13.662686912374241,-7.965416907320714,10.8659594500951,0.0008967922037423634,2.8238434477666417e-08,0
2024-02-06 10:15:41.572918,-1.3615647554397583,8.15981674194336,2.5963053703308105,0,7.4824e-05,0.00016504683447647383,1.0253611271790156e-09,0.0008709285645977262,2.7545750479524023e-08,0.0001077949506120161,4.133203389746377e-09,-9.473220819561611,72.34987550367003,117.6735935524763,8.67048265215746,-29341.87958325723,99.4732208195616,17.650124496329962,-27.673593552476294,8.67048265215746,0.00089295955875975,2.787298163423387e-08,0
2024-02-06 10:15:41.647933,-1.1079164743423462,9.026049613952637,2.8906328678131104,0,7.5015e-05,0.00016481099901902965,1.056862550277836e-09,0.0008725698148347143,2.771225457475982e-08,0.00010831895321375884,4.153842267561738e-09,-6.99785462248015,72.24210284805856,110.97073765427125,9.542159552435454,11620.034663440558,96.99785462248016,17.75789715194144,-20.970737654271243,9.542159552435454,0.0008945802047796846,2.8041762028272382e-08,0
2024-02-06 10:15:41.723021,-0.9093050956726074,8.908797264099121,2.955241441726685,0,7.5088e-05,0.00016473737043172412,1.068891065762788e-09,0.0008732244367457632,2.7775976064942505e-08,0.00010853232762605703,4.161757339312391e-09,-5.827896065574635,71.64819673242755,107.1027296186903,9.430109035887918,-1492.2559736247522,95.82789606557463,18.351803267572453,-17.102729618690304,9.430109035887918,0.0008952310228575885,2.8106362244553225e-08,0
2024-02-06 10:15:41.797747,-0.6987291574478149,8.901618003845215,2.4072654247283936,0,7.4726e-05,0.00016502842463153892,1.0092034568563384e-09,0.0008700007515822653,2.7460452305855138e-08,0.00010756171388322868,4.122644317799211e-09,-4.488207871216149,74.8674589875231,106.18581799699366,9.24780797524158,-2439.5934567130375,94.48820787121615,15.132541012476912,-16.185817996993663,9.24780797524158,0.0008920231000280047,2.7786527826098707e-08,0
2024-02-06 10:15:41.872647,-1.0098072290420532,9.451987266540527,2.72552227973938,0,7.489999999999999e-05,0.00016487978196591432,1.0379054708303149e-09,0.0008715975152407887,2.7611971355068734e-08,0.00010800826641351735,4.141398906085027e-09,-6.098089261453486,73.9148499302852,110.32969049054768,9.888793941832624,8557.890074646786,96.0980892614535,16.085150069714793,-20.32969049054767,9.888793941832624,0.0008936069363476863,2.7940103700216257e-08,0
2024-02-06 10:15:41.948043,0.5814766883850098,10.813551902770996,4.003335475921631,0,7.539600000000001e-05,0.00016477355599183138,1.1196594986438387e-09,0.0008766233689547782,2.804553013434925e-08,0.00010967702313692133,4.195384857893538e-09,3.0779992044507334,69.6847087710627,81.7356934638781,11.545462954157797,21972.903235253496,86.92200079554928,20.315291228937294,8.264306536121897,11.545462954157797,0.0008986923306426928,2.8379687313559986e-08,0
2024-02-06 10:15:42.038034,-0.27997025847435,11.966933250427246,1.7731448411941528,0,8.9991e-05,0.00016697379916410441,3.5405858228942786e-09,0.0010428639593602423,4.2052988912728104e-08,0.00015183088825107376,6.1037388412474314e-09,-1.340208737794859,81.57178551274819,98.97262725776729,12.100823004806939,6171.284357870699,91.34020873779487,8.42821448725182,-8.972627257767277,12.100823004806939,0.001067004267079999,4.2640887095667526e-08,0
2024-02-06 10:15:42.113071,0.6771929860115051,8.789151191711426,0.6532639265060425,0,7.503700000000001e-05,0.0001640037648303091,1.0658665769080496e-09,0.0008876707159863714,2.7618381145161478e-08,0.0001336886298949794,3.968909404069393e-09,4.405862644793134,85.74924038088636,43.96961239527372,8.839373437565563,-43464.55171770428,85.59413735520687,4.250759619113634,46.030387604726286,8.839373437565563,0.0009125399633229601,2.7922451369764995e-08,0
2024-02-06 10:15:42.188072,1.6152129173278809,7.16197395324707,0.3062922358512878,0,7.5001e-05,0.000163962501524049,1.0599631841136693e-09,0.0008873835957337621,2.7586430167550506e-08,0.00013367135788405697,3.964096924289368e-09,12.709077665767943,87.55115485825094,10.737484706699114,7.3482377893638615,-19881.543555441942,77.29092233423206,2.448845141749068,79.2625152933009,7.3482377893638615,0.0009122507220068244,2.7889939328832852e-08,0
2024-02-06 10:15:42.263043,0.8566610813140869,10.638869285583496,0.8925547003746033,0,7.4971e-05,0.00016392542341406936,1.0550448652395978e-09,0.0008871165830851796,2.7559812664868225e-08,0.0001336533751800136,3.960087053293407e-09,4.603627783516296,85.20436444689635,46.17553496344335,10.710558425083676,44848.28314574721,85.3963722164837,4.795635553103651,43.82446503655665,10.710558425083676,0.0009119816890284672,2.7862854901462655e-08,0
2024-02-06 10:15:42.338087,1.356778860092163,9.339520454406738,1.2802058458328247,0,7.5044e-05,0.00016400621397193068,1.0670143700041864e-09,0.0008878457943106892,2.762459879164317e-08,0.00013373268093995016,3.969846644341785e-09,8.265698507134433,82.19487744324744,43.336707068317466,9.523991715724,-15811.613311652844,81.73430149286557,7.805122556752578,46.663292931682534,9.523991715724,0.0009127171646506775,2.7928778355750552e-08,0
2024-02-06 10:15:42.413072,1.2275618314743042,8.954261779785156,1.4883887767791748,0,7.4985e-05,0.00016392997592152948,1.0573402524023303e-09,0.0008873061277347806,2.7572231809942835e-08,0.00013365100739858311,3.9619588255357995e-09,7.806158559757151,80.56250914730838,50.48559061821581,9.159749626592202,-4857.532694962964,82.19384144024285,9.43749085269162,39.5144093817842,9.159749626592202,0.0009121665380290926,2.7875491979977946e-08,0
2024-02-06 10:15:42.488127,0.8877689242362976,9.89706802368164,1.5793193578720093,0,7.505499999999999e-05,0.00016400401249797933,1.0688179419970117e-09,0.0008879659242779018,2.763436633176327e-08,0.0001337583771832959,3.971318153996164e-09,5.125724518813416,80.93349730314034,60.65873529355733,10.061527655498967,12014.896128262812,84.87427548118659,9.06650269685965,29.341264706442676,10.061527655498967,0.0009128373909195737,2.7938717619666896e-08,0
2024-02-06 10:15:42.562887,0.4714028835296631,9.188767433166504,2.0052568912506104,0,7.476e-05,0.00016380353465633384,1.020466328791751e-09,0.0008851507635480167,2.737283162030895e-08,0.00013322965218655032,3.931937419664112e-09,2.936818006036052,77.68939561525691,76.7709130401893,9.416831888662422,-8623.53888224378,87.06318199396395,12.31060438474308,13.229086959810695,9.416831888662422,0.0009099855012016922,2.7672610905264038e-08,0
2024-02-06 10:15:42.638150,0.3804723918437958,9.418486595153809,2.232583284378052,0,7.5263e-05,0.00016401778128809027,1.1029133897517745e-09,0.0008898304879361393,2.781923940505722e-08,0.00013429546899072095,3.999219987640197e-09,2.3132820468502215,76.66458765446778,80.32867901884912,9.686953964262017,3589.042100362659,87.68671795314978,13.33541234553222,9.671320981150881,9.686953964262017,0.0009147324214385174,2.8126860107923935e-08,0
2024-02-06 10:15:42.713044,-0.0885375961661338,9.310805320739746,2.761415958404541,0,7.4894e-05,0.00016396391931828774,1.0424007659898984e-09,0.0008863749335776569,2.7491529504787926e-08,0.00013337407613042758,3.949834956565345e-09,-0.5448162131196673,73.48059868497049,91.83641054142792,9.712072524542931,335.38815233415335,90.54481621311967,16.519401315029523,-1.8364105414279266,9.712072524542931,0.0009112262802930208,2.7793380327942604e-08,0
2024-02-06 10:15:42.803039,-0.1890397369861602,9.286876678466797,2.979170560836792,0,8.999500000000001e-05,0.00016186807166432136,3.502595213904089e-09,0.001026796731512666,4.193693216205241e-08,0.00017671837464395927,6.291188006137354e-09,-1.1661276305975874,72.21409180560427,93.63076804379033,9.754858876158428,475.43031963439245,91.16612763059759,17.78590819439573,-3.6307680437903174,9.754858876158428,0.0010543918552446345,4.255059927810202e-08,0
2024-02-06 10:15:42.878042,0.6460852026939392,12.904953002929688,2.0196144580841064,0,7.5003e-05,0.00015844205885337585,1.101550475543429e-09,0.0008604467762209178,2.7790154828081457e-08,0.0001392474821421282,3.922707943668841e-09,2.866114530568385,81.10540512303125,72.26025469981892,13.07799987216189,44306.77434240579,87.13388546943162,8.894594876968748,17.739745300181077,13.07799987216189,0.0008859246028898786,2.8087252561085993e-08,0
2024-02-06 10:15:42.953036,0.2392908036708831,8.303391456604004,1.6630711555480957,0,7.499400000000001e-05,0.0001584380746613472,1.100124514942614e-09,0.00086035133867085,2.778241123656445e-08,0.00013923091005686687,3.921454790903947e-09,1.6507182148232082,78.6741920133156,81.81219832822605,8.471680791834753,-61422.50153781817,88.3492817851768,11.325807986684397,8.187801671773958,8.471680791834753,0.0008858285927708484,2.807935995964053e-08,0
2024-02-06 10:15:43.028042,-0.260826975107193,7.932490348815918,0.9428057670593262,0,7.5006e-05,0.00015843794544431858,1.102025771063248e-09,0.0008604487539616826,2.7792736037120244e-08,0.0001392465453184025,3.923125655636198e-09,-1.8832550712619018,83.2219815883507,105.46409181055756,7.992578842864272,-6387.514985074284,91.88325507126191,6.778018411649291,-15.464091810557559,7.992578842864272,0.000885925640860416,2.8089883448299332e-08,0
2024-02-06 10:15:43.103023,0.1603248417377472,11.342384338378906,2.0196144580841064,0,7.4981e-05,0.0001584392017209857,1.0980648067236815e-09,0.0008602078180280926,2.7771227829970372e-08,0.00013920951506558822,3.919644954881398e-09,0.8098231202715764,79.90377942907142,85.46115675870621,11.52190214737496,47069.56835079136,89.19017687972843,10.096220570928583,4.538843241293788,11.52190214737496,0.0008856860391377023,2.806796141646581e-08,0
2024-02-06 10:15:43.178001,0.2368979007005691,8.7843656539917,2.536482572555542,0,7.4978e-05,0.00015843860588687204,1.0975894900122687e-09,0.000860177627903104,2.776864725180147e-08,0.00013920268092004225,3.9192273365874185e-09,1.5447855130124866,73.89394493654925,84.66426874920383,9.146307692138032,-31683.886676584156,88.45521448698751,16.106055063450764,5.335731250796174,9.146307692138032,0.0008856555367385864,2.8065331207727104e-08,0
2024-02-06 10:15:43.252991,-0.4259376525878906,8.860939025878906,2.3426570892333984,0,7.499e-05,0.0001584374716483607,1.09949074647748e-09,0.0008602834997311833,2.7778970018567274e-08,0.00013923195575801298,3.920897944407487e-09,-2.7520400653611303,75.1909582126875,100.30484646876603,9.175276864594954,386.30714037767245,92.75204006536113,14.809041787312497,-10.304846468766033,9.175276864594954,0.000885762761599436,2.8075852540653294e-08,0
2024-02-06 10:15:43.343038,-0.6054057478904724,9.36823558807373,2.278048515319824,0,9.0047e-05,0.00015067300285785936,3.426628953797558e-09,0.0009975218408123257,4.1765457524849084e-08,0.00017401893790189193,6.279207297326082e-09,-3.6974975800333145,76.3328013199256,104.88270897424539,9.660220452524923,5385.449686607761,93.69749758003331,13.667198680074403,-14.882708974245379,9.660220452524923,0.0010237356921766077,4.2373620007379236e-08,0
2024-02-06 10:15:43.402998,-0.8758043646812439,9.274911880493164,2.718343496322632,0,5.996e-05,0.00017295558718633197,-1.4418777405322335e-09,0.0007170636518689397,1.597209066569847e-08,9.885571467474865e-05,2.174217461289389e-09,-5.39428775105206,73.66489666409323,107.85806392687509,9.704659449981103,741.1440536387493,95.39428775105206,16.33510333590677,-17.858063926875086,9.704659449981103,0.0007442219885856935,1.6183754608276484e-08,0
2024-02-06 10:15:43.477998,-2.1201164722442627,9.691277503967283,2.294798851013184,0,7.5e-05,0.00015042626249265218,9.89953769053726e-10,0.0008596893960400822,2.782927358597431e-08,0.00013655454512671395,3.944502614996387e-09,-12.339930874591113,76.67828861088978,132.73419320181532,10.182428751599259,6370.257354908755,102.33993087459112,13.321711389110213,-42.7341932018153,10.182428751599259,0.0008833691538117195,2.8124856935948748e-08,0
2024-02-06 10:15:43.567976,-1.2802058458328247,10.062178611755373,3.196925163269043,0,8.9978e-05,0.00012496124865257285,3.0523308400203168e-09,0.0010076230288907292,4.181357633628116e-08,0.00017768206626967356,6.297820597743933e-09,-7.2507567344967,72.37406299103297,111.82358904793448,10.635163182674473,5031.612517228813,97.2507567344967,17.625937008967036,-21.823589047934473,10.635163182674473,0.0010307717490742547,4.239521711075813e-08,0
2024-02-06 10:15:43.642997,0.569512128829956,9.865960121154783,1.1677391529083252,0,7.5021e-05,0.0001302761716151788,1.1435377925479362e-09,0.0008585904433766607,2.7857098883929488e-08,0.0001450409241811411,3.8843367136575154e-09,3.3037301621503943,83.24985211467272,64.00128071393057,9.951137015755336,-9117.795909400533,86.69626983784961,6.750147885327285,25.998719286069434,9.951137015755336,0.0008804466480348243,2.8149843847117138e-08,0
2024-02-06 10:15:43.718013,0.8423036336898804,9.569239616394045,0.9093050956726074,0,7.5016e-05,0.0001302726420757725,1.142886420513709e-09,0.0008585418553773168,2.7852806053182604e-08,0.00014503573157051964,3.883611522018136e-09,5.030324543814004,84.57183852892331,47.190575012994024,9.649179136294888,-4025.2463402533776,84.969675456186,5.4281614710766934,42.80942498700598,9.649179136294888,0.0008803978885369522,2.8145469135552746e-08,0
2024-02-06 10:15:43.793006,0.6891575455665588,8.83700942993164,1.1079164743423462,0,7.4993e-05,0.00013025503027221105,1.1398903522817078e-09,0.0008583301835132841,2.7833062024735366e-08,0.00014501253352246446,3.880275966969567e-09,4.459207914024993,82.85397980016323,58.1171387658163,8.93281325795134,-9552.43660533048,85.54079208597501,7.146020199836777,31.882861234183704,8.93281325795134,0.0008801850440218617,2.8125348589267875e-08,0
2024-02-06 10:15:43.868016,-0.4642241597175598,9.674527168273926,1.0241646766662598,0,7.500999999999999e-05,0.00013025694220599078,1.1421047040477703e-09,0.0008584875315743687,2.7847654975313597e-08,0.00014503065621224802,3.88274133408231e-09,-2.7471832922065986,83.95706174269687,114.38340902381135,9.739655706700658,10756.46512130807,92.7471832922066,6.042938257303126,-24.383409023811353,9.739655706700658,0.0008803417541516834,2.814021981162385e-08,0
2024-02-06 10:15:43.943009,0.1603248417377472,10.169858932495115,1.0696299076080322,0,7.4993e-05,0.0001302595253501936,1.139890314073545e-09,0.0008583188542925123,2.7833062121033744e-08,0.0001450128589582817,3.880275964203363e-09,0.9031763346775442,83.99590625706881,81.47550233670535,10.227210905275127,6501.342772985068,89.09682366532246,6.004093742931184,8.524497663294655,10.227210905275127,0.0008801747149525048,2.812534868263532e-08,0
2024-02-06 10:15:44.017865,0.2464695274829864,9.679313659667969,1.2132043838500977,0,7.4856e-05,0.00013023165993590198,1.1220466678814473e-09,0.0008569591859699491,2.7715565575275762e-08,0.0001448564848093168,3.860419914155282e-09,1.4586377985256795,82.8558081958659,78.51631295026182,9.758161969715696,-6266.016559252854,88.54136220147433,7.144191804134093,11.483687049738187,9.758161969715696,0.0008788189420234694,2.800561382644418e-08,0
2024-02-06 10:15:44.092383,0.6867645978927612,9.54052448272705,1.2921704053878784,0,7.451800000000001e-05,0.00013007394336871347,1.0780550209229678e-09,0.0008537110333238844,2.7426462308215108e-08,0.0001444330764699356,3.811529978299089e-09,4.117274612612177,82.28678432906655,62.01018445005472,9.65209600941647,-1423.3602659656187,85.88272538738782,7.713215670933455,27.98981554994528,9.65209600941647,0.000875558491901593,2.7711023044044294e-08,0
2024-02-06 10:15:44.167258,0.4690099954605102,9.796566009521484,0.9284483194351196,0,7.487499999999999e-05,0.000130280249133627,1.1245282442846333e-09,0.0008571627039767506,2.773185327032326e-08,0.00014482945691231649,3.863163340507818e-09,2.7409391139182437,84.58608704209588,63.19916408628954,9.851633988157268,2664.9479631492227,87.25906088608176,5.413912957904123,26.800835913710458,9.851633988157268,0.0008790201453849456,2.802221048694011e-08,0
2024-02-06 10:15:44.243040,0.205790102481842,9.995177268981934,1.2443121671676636,0,7.5782e-05,0.00013058627097804388,1.2428312111552774e-09,0.000866138259553552,2.851337025728426e-08,0.00014581480379299085,3.9949705127376766e-09,1.1794927065228586,82.90368591373117,80.60916284765801,10.074434523784157,2940.0192080822603,88.82050729347715,7.096314086268835,9.390837152341991,10.074434523784157,0.0008879809771811532,2.8818686684962726e-08,0
2024-02-06 10:15:44.332802,0.5814766883850098,9.664956092834473,1.3759222030639648,0,8.9762e-05,0.00013608926584620317,3.106893213556764e-09,0.0010035625917526486,4.1582579207914604e-08,0.00016413024204090993,6.1614863831166424e-09,3.4429592263487176,81.89770338007827,67.09065788500838,9.779706198267808,-3283.442052498263,86.55704077365128,8.102296619921743,22.90934211499161,9.779706198267808,0.0010259614516131975,4.2151246641970966e-08,0
2024-02-06 10:15:44.407762,0.208183005452156,9.449594497680664,1.5506044626235962,0,7.496e-05,0.0001302449944521143,1.1357533530889167e-09,0.000862095802832246,2.77748414295918e-08,0.0001424710181881563,3.892330456161324e-09,1.2620730286265645,80.68125855506939,82.35323802649637,9.578233163473522,-2687.740592239682,88.73792697137344,9.318741444930607,7.646761973503632,9.578233163473522,0.0008834426539761231,2.8069235623685636e-08,0
2024-02-06 10:15:44.482991,-0.1268241256475448,9.078693389892578,1.749215841293335,0,7.522900000000001e-05,0.00013025593722144804,1.1707907283990118e-09,0.0008645878575531246,2.8007080381913636e-08,0.00014291484401903314,3.930714854628192e-09,-0.8003370320881912,79.09430995711884,94.14688358462297,9.246540655075119,-4409.104313474893,90.8003370320882,10.90569004288116,-4.146883584622974,9.246540655075119,0.000885947755373151,2.830579131056172e-08,0
2024-02-06 10:15:44.558040,-0.3469716608524322,9.775029182434082,2.053115129470825,0,7.5049e-05,0.00013029857884223303,1.1473408219532803e-09,0.0008628910225216152,2.7851607282706908e-08,0.00014257263423166436,3.905020981585629e-09,-2.032901228887243,78.13820550753105,99.59221956484387,9.994341728484905,9964.17105370872,92.03290122888725,11.86179449246895,-9.592219564843866,9.994341728484905,0.0008842429487581228,2.8147426313225813e-08,0
2024-02-06 10:15:44.632547,-0.5025107264518738,9.576417922973633,1.9526129961013796,0,7.450700000000001e-05,0.0001305287885691925,1.0766566053847845e-09,0.0008576467803560497,2.7385341538127065e-08,0.0001414870819096343,3.828040798511337e-09,-3.0037704706952875,78.47547732895349,104.43206373218615,9.786367803132775,-2791.334040454319,93.00377047069529,11.524522671046507,-14.432063732186148,9.786367803132775,0.0008789848456303116,2.767254988180261e-08,0
2024-02-06 10:15:44.708026,-0.4857603311538696,9.215088844299316,1.770751953125,0,7.5479e-05,0.00013004848883519613,1.203297162203316e-09,0.0008667794526449443,2.822341268736554e-08,0.0001432966372749583,3.9664456860350476e-09,-3.0174728700208466,79.12275056722663,105.34025347006606,9.396243291185495,-5168.649716441386,93.01747287002085,10.877249432773372,-15.340253470066045,9.396243291185495,0.0008881177597763139,2.8526157104702673e-08,0
2024-02-06 10:15:44.783323,-0.6412993669509888,9.47113037109375,1.718108057975769,0,7.529700000000001e-05,0.00013015105126772366,1.1796190040539514e-09,0.0008650790066963436,2.806581356756549e-08,0.00014297915101394815,3.940394589300758e-09,-3.873639758690301,79.71808496239069,110.46854352370272,9.647044660578048,3330.8281789786183,93.8736397586903,10.281915037609314,-20.46854352370272,9.647044660578048,0.0008864220335695044,2.8365614777816098e-08,0
2024-02-06 10:15:44.858483,-0.904519259929657,9.547703742980955,1.7898952960968018,0,7.516e-05,0.00013025693984366498,1.161781056662821e-09,0.0008637762165595294,2.7947386984772458e-08,0.00014273885278419417,3.920822906040585e-09,-5.411868902297138,79.38207899720659,116.80964160488742,9.756050790473864,1450.3210470438505,95.41186890229714,10.61792100279341,-26.809641604887407,9.756050790473864,0.0008851274500124145,2.824498232891609e-08,0
2024-02-06 10:15:44.933464,-1.2490980625152588,9.734350204467772,1.718108057975769,0,7.4981e-05,0.0001304496885940238,1.138447813417648e-09,0.0008620504727312328,2.7792925496080935e-08,0.00014242488648400468,3.895300751376081e-09,-7.312155024126556,79.99041306252172,126.01788269471001,9.963418849565766,2765.6080752710927,97.31215502412655,10.009586937478284,-36.01788269471001,9.963418849565766,0.0008834211832871121,2.8087651005348455e-08,0
2024-02-06 10:15:45.008460,-1.521889567375183,9.940139770507812,1.591283917427063,0,7.4996e-05,0.00013042890618679962,1.1404044028785032e-09,0.0008621980314060451,2.7805857359861956e-08,0.00014244970692382019,3.897437310826639e-09,-8.70469967364252,80.904881034055,133.72305700965202,10.18109576707628,2902.5137008709085,98.70469967364252,9.095118965945007,-43.723057009652024,10.18109576707628,0.0008835661061472576,2.810082282266691e-08,0
2024-02-06 10:15:45.098013,-1.1868823766708374,9.361056327819824,1.718108057975769,0,8.955299999999999e-05,0.00011071310959206068,2.8955565647249366e-09,0.0010026817872077227,4.1379385119642255e-08,0.0001665371164167897,6.146397904511266e-09,-7.225939737363756,79.59980625729742,124.6370173910448,9.591139694924095,-6587.786809511525,97.22593973736376,10.400193742702584,-34.63701739104478,9.591139694924095,0.0010224298363105588,4.1933470735198784e-08,0
2024-02-06 10:15:45.172962,-1.1079164743423462,9.64341926574707,2.1871180534362797,0,7.4949e-05,0.00012746973080215892,1.156345464166347e-09,0.0008639111064234974,2.77495238103471e-08,0.00013802115535125896,3.922513404060977e-09,-6.553882430381795,77.22154484473553,116.86515724614047,9.95020097429031,4790.741429054613,96.5538824303818,12.778455155264467,-26.865157246140484,9.95020097429031,0.0008841045025318797,2.8049230255722826e-08,0
2024-02-06 10:15:45.247475,-1.4453164339065552,9.327555656433104,1.9597917795181277,0,7.4513e-05,0.0001280263355761572,1.100647321695873e-09,0.000859775433890462,2.737376014455865e-08,0.00013711712900767487,3.862533258070729e-09,-8.808005481056057,78.1343078645224,126.40820641294874,9.6401772772623,-4160.665884181414,98.80800548105606,11.865692135477602,-36.40820641294875,9.6401772772623,0.0008800032081702307,2.766682728735419e-08,0
2024-02-06 10:15:45.322813,-1.2921704053878784,9.624276161193848,2.263690948486328,0,7.5338e-05,0.00012689712225494822,1.2058032480512048e-09,0.0008675930645152332,2.8086299650151005e-08,0.00013885931563297673,3.976373541484999e-09,-7.646891935572314,76.76424463413922,119.71878622527954,9.970992563117445,4391.081338171244,97.64689193557231,13.235755365860788,-29.718786225279544,9.970992563117445,0.0008877513811701897,2.8392001268887427e-08,0
2024-02-06 10:15:45.398039,-1.1868823766708374,9.286876678466797,1.7970739603042605,0,7.5226e-05,0.00012703594921074351,1.191582996049126e-09,0.0008665340399562121,2.79891885323006e-08,0.00013863191279808444,3.9608340326928594e-09,-7.283040187431514,79.04823307748575,123.44287559986635,9.533322769942595,-5818.065471709912,97.28304018743151,10.951766922514262,-33.442875599866355,9.533322769942595,0.000886700728566727,2.829315731705599e-08,0
2024-02-06 10:15:45.472840,-0.5910483002662659,9.126551628112791,1.830574631690979,0,7.4801e-05,0.00012741375947959265,1.13751243295243e-09,0.000862621186441064,2.7621743046691184e-08,0.00013786103747228545,3.902079280760406e-09,-3.705380754116422,78.65829326243278,107.89401397815367,9.327072756017637,-2757.3162648220996,93.70538075411642,11.341706737567222,-17.894013978153662,9.327072756017637,0.0008828109894278884,2.7919184196281485e-08,0
2024-02-06 10:15:45.547798,0.1698964685201645,9.389771461486816,1.612820029258728,0,7.4958e-05,0.00012738069906080058,1.1575137979478497e-09,0.0008640747178035975,2.7757288675174384e-08,0.00013813134395316998,3.923744682702303e-09,1.0365841762767802,80.25378023452315,83.98656909421354,9.52879118019416,2691.085997178725,88.96341582372322,9.746219765476845,6.013430905786464,9.52879118019416,0.000884268753616735,2.805713251785432e-08,0
2024-02-06 10:15:45.622342,0.4953319728374481,9.172017097473145,1.1557745933532717,0,7.4544e-05,0.00012724299677343954,1.104806692910162e-09,0.0008602324275718929,2.740035709608166e-08,0.0001375582448662893,3.8666769378166755e-09,3.091238143762342,82.81795868887706,66.80140930804431,9.257811097138223,-3635.169605279258,86.90876185623766,7.182041311122943,23.198590691955697,9.257811097138223,0.0008804049525103839,2.7693886642415052e-08,0
2024-02-06 10:15:45.697294,0.6030128598213196,9.923389434814451,0.8231604099273682,0,7.495200000000001e-05,0.00012746705911930193,1.156767544312283e-09,0.0008641278905044796,2.775212660096925e-08,0.00013796194760695856,3.92288305708122e-09,3.4774065276090402,85.25808342566722,53.77505568169159,9.97571428242453,9578.172500884657,86.52259347239097,4.741916574332781,36.22494431830842,9.97571428242453,0.0008843067122304064,2.80518743314477e-08,0
2024-02-06 10:15:45.787979,0.5312256217002869,10.162680625915527,0.765730619430542,0,9.0685e-05,0.00013638954613419163,3.2323955295388893e-09,0.001022134960637212,4.259041331947536e-08,0.00015046095888940255,6.191761851034844e-09,2.9922528064762934,85.69105925298432,55.24902055794339,10.205323196599075,2531.9392862606246,87.0077471935237,4.308940747015681,34.75097944205662,10.205323196599075,0.0010421134708857016,4.3159351274122016e-08,0
2024-02-06 10:15:45.847718,0.4115802049636841,9.877924919128418,0.8901618123054504,0,5.9739e-05,0.00012180151157822001,-7.625947064452563e-10,0.000712046671038747,1.5757420932553243e-08,0.00012483933529315155,1.9320403991481835e-09,2.3859440303888126,84.85062689336883,65.18580236371584,9.926489159070442,-4667.537748014403,87.61405596961119,5.149373106631184,24.814197636284174,9.926489159070442,0.0007330968077931705,1.589372974590628e-08,0
2024-02-06 10:15:45.938000,0.5360113978385925,9.82528018951416,0.588655412197113,0,9.0282e-05,0.00013627265674041498,3.1785849550327777e-09,0.0010129441678553822,4.210061852872494e-08,0.00014742309253714246,6.089896065758518e-09,3.1226364331438305,86.57137486435484,47.67997577094133,9.857482143802303,-764.3496518479839,86.87736356685618,3.4286251356451634,42.32002422905867,9.857482143802303,0.0010326469350075747,4.2657382912097636e-08,0
2024-02-06 10:15:46.012816,0.2943277060985565,9.873138427734377,0.4642241597175598,0,7.4816e-05,0.000129851644449669,1.1206457339298574e-09,0.0008606162966881992,2.761237545640942e-08,0.0001392811748075263,3.8728119663821935e-09,1.7075363195329758,87.30799781268604,57.62445849211525,9.888427341202844,413.61737329637043,88.29246368046702,2.6920021873139643,32.375541507884755,9.888427341202844,0.0008814312822604826,2.7905157188836074e-08,0
2024-02-06 10:15:46.087485,0.7346227765083313,9.911425590515137,0.7178724408149719,0,7.4669e-05,0.0001297760165891974,1.1015631008435011e-09,0.0008591621312328579,2.7485971741957226e-08,0.00013919429070738715,3.852344019666848e-09,4.238942294732323,85.85737059468558,44.339288014035446,9.964505441885452,1018.8712944141196,85.76105770526769,4.142629405314432,45.66071198596456,9.964505441885452,0.0008799866094389612,2.7776476347994073e-08,0
2024-02-06 10:15:46.162871,1.0074143409729004,9.894675254821776,0.8542681932449341,0,7.5386e-05,0.00013040053689581443,1.1948363952678778e-09,0.0008662626183859112,2.8104536514695554e-08,0.00013975790312469762,3.95234838115565e-09,5.813467856015562,85.06553893603508,40.297310428189434,9.982447405259403,238.00126514142823,84.18653214398444,4.934461063964919,49.702689571810566,9.982447405259403,0.000887100611836867,2.840622580427284e-08,0
2024-02-06 10:15:46.238125,1.0911661386489868,10.390007019042969,0.9667348861694336,0,7.5254e-05,0.00013026203058415939,1.177632665814199e-09,0.000864923829355836,2.7990278209144595e-08,0.00013963771692145627,3.933908270232603e-09,5.995267827689389,84.68423730487586,41.53981600196298,10.491780865898473,6768.191200986922,84.00473217231061,5.315762695124146,48.460183998037024,10.491780865898473,0.0008857539834437713,2.8289894435990953e-08,0
2024-02-06 10:15:46.312999,0.205790102481842,8.877689361572266,1.208418607711792,0,7.4874e-05,0.00013001560889834454,1.1281799143125243e-09,0.0008612629670435192,2.7662302717828722e-08,0.00013922443775761886,3.88092446084358e-09,1.3279123238647792,82.248617932629,80.33541483297827,8.961919074523992,-20432.483791095452,88.67208767613523,7.751382067371003,9.664585167021723,8.961919074523992,0.0008820778882994054,2.795598963089353e-08,0
2024-02-06 10:15:46.388084,-0.3278284072875976,9.428057670593262,1.6152129173278809,0,7.5085e-05,0.00013000273385718752,1.155611849473233e-09,0.0008631942233554127,2.784423295141581e-08,0.00013952233088351056,3.910332244935219e-09,-1.9914621092872977,80.27847600153444,101.47307517802757,9.571032111165442,8112.313200259035,91.9914621092873,9.72152399846557,-11.473075178027564,9.571032111165442,0.0008840087436556636,2.814120547640298e-08,0
2024-02-06 10:15:46.463003,-0.0143574485555291,9.813316345214844,1.2825987339019775,0,7.4919e-05,0.0001300311352832225,1.1340290383345793e-09,0.0008615971893121006,2.770107526416441e-08,0.0001392818125164585,3.887191501033022e-09,-0.08382697458431057,82.55366073582056,90.64134388080515,9.896789547110558,4348.128458002854,90.08382697458431,7.446339264179448,-0.6413438808051538,9.896789547110558,0.0008824155688061183,2.7995461246716234e-08,0
2024-02-06 10:15:46.538075,-0.5384043455123901,9.169623374938965,1.6774286031723022,0,7.5072e-05,0.0001299888490059763,1.1539205671327026e-09,0.0008630493842006923,2.7833010727038136e-08,0.00013950825460774466,3.908518941168023e-09,-3.360325492449277,79.6333238586754,107.79507457232465,9.337325034303682,-7452.372559767639,93.36032549244928,10.366676141324602,-17.795074572324644,9.337325034303682,0.0008838630513483364,2.812978028922624e-08,0
2024-02-06 10:15:46.627982,-1.3519930839538574,9.786993980407717,2.359407424926758,0,8.9907e-05,0.0001159668260729104,2.978296787030345e-09,0.0010036600934339762,4.1679328277393295e-08,0.00016945148584616944,6.200227815984932e-09,-7.865164165682562,76.44599907550553,119.81367095441779,10.157752697737598,9125.29239585256,97.86516416568257,13.554000924494481,-29.813670954417788,10.157752697737598,0.001024448970889618,4.224309981969203e-08,0
2024-02-06 10:15:46.717975,-1.517103672027588,9.29644775390625,2.5388755798339844,0,8.9993e-05,0.00011584345491240321,2.9882646291127135e-09,0.0010044806814285517,4.176567833071238e-08,0.00016966211201537414,6.214809700692978e-09,-9.268497261796817,74.7249159141228,120.86040450475633,9.755584739146368,-4468.880452826663,99.26849726179682,15.275084085877198,-30.860404504756332,9.755584739146368,0.0010252738061916568,4.2331140683118515e-08,0
2024-02-06 10:15:46.777636,-1.6271774768829346,8.48285961151123,2.2589051723480225,0,5.9661e-05,0.0001635296228167802,-1.2487074677280831e-09,0.0007348397059246301,1.538714533611402e-08,9.68989691277818e-05,2.172144344075874e-09,-10.858548121156408,75.08870503422398,125.7666768618729,8.928004609516297,-13871.37543169024,100.8585481211564,14.911294965776017,-35.766676861872895,8.928004609516297,0.0007590261794958209,1.5589795476084864e-08,0
2024-02-06 10:15:46.852957,-1.5458186864852903,9.136122703552246,2.3976938724517822,0,7.532099999999999e-05,0.00013868506285760702,1.1176335211023683e-09,0.0008727963374515771,2.797493555574972e-08,0.00013336013964856426,3.975073165794663e-09,-9.603409347910342,75.29485460694335,122.8103052414381,9.571166562746818,8538.946020771384,99.60340934791034,14.705145393056656,-32.81030524143811,9.571166562746818,0.000893751598698313,2.827803618905072e-08,0
2024-02-06 10:15:46.927973,-1.3400285243988037,9.224660873413086,2.593912363052368,0,7.5016e-05,0.00013912515455726684,1.0752674629466012e-09,0.00086999631795609,2.7709159675800057e-08,0.0001325989196976499,3.934514409244367e-09,-8.265307045085164,74.29437544975632,117.32110990681112,9.675661528953803,1392.9690493626078,98.26530704508517,15.705624550243687,-27.32110990681111,9.675661528953803,0.0008909724324538449,2.8007751314455914e-08,0
2024-02-06 10:15:47.002955,-1.454888105392456,9.133729934692385,2.6082699298858643,0,7.4982e-05,0.0001391726681399733,1.0705363999607472e-09,0.0008696842253123521,2.7679585106564488e-08,0.00013251048259866992,3.9300075494053285e-09,-9.050462732661847,74.06253353125629,119.15269667683694,9.609619864815414,-880.766905902603,99.05046273266186,15.93746646874371,-29.152696676836925,9.609619864815414,0.0008906619511985889,2.7977677516076463e-08,0
2024-02-06 10:15:47.077622,-1.651106595993042,9.078693389892578,2.558018684387207,0,7.4667e-05,0.0001396618623054415,1.0266199614155945e-09,0.00086681576863873,2.7406086357517193e-08,0.0001316967921419219,3.888394903633685e-09,-10.307504320020307,74.26425162023672,122.84074909601836,9.575608923127811,-455.50164982660186,100.30750432002031,15.73574837976328,-32.84074909601834,9.575608923127811,0.0008878170180864123,2.7699587233521574e-08,0
2024-02-06 10:15:47.153026,-1.8233959674835205,9.162445068359377,2.634591817855835,0,7.5404e-05,0.0001383815081108004,1.12907894341398e-09,0.0008735376281605959,2.804740658423775e-08,0.00013361026911199846,3.986160555705755e-09,-11.255247240891004,73.9578106935838,124.6870344649152,9.706505371741734,1735.9350778993528,101.25524724089101,16.042189306416205,-34.6870344649152,9.706505371741734,0.0008944658370288043,2.835174265081193e-08,0
2024-02-06 10:15:47.242814,-1.4596738815307615,9.308412551879885,3.2232472896575928,0,8.9788e-05,0.00011476966975668967,2.949742214636969e-09,0.0010063800361653566,4.156777442607e-08,0.00017573984797323504,6.211006597782755e-09,-8.912107856312195,70.90043726802153,114.36378359051969,9.958238557430882,2803.639525205455,98.9121078563122,19.09956273197848,-24.363783590519688,9.958238557430882,0.0010280356746990348,4.213261744571718e-08,0
2024-02-06 10:15:47.302987,-1.179703712463379,9.490273475646973,3.4051082134246826,0,6.0172999999999995e-05,0.0001538522534797579,-1.0278769136867304e-09,0.0007280184928127526,1.5885668208226643e-08,7.759047386134423e-05,2.459817857217222e-09,-7.085895833815832,70.26202374449942,109.10870301208188,10.15144095372182,3210.782182888323,97.08589583381584,19.737976255500588,-19.10870301208188,10.15144095372182,0.0007481321563815979,1.610781454022356e-08,0
2024-02-06 10:15:47.392242,-0.8566610813140869,11.45724391937256,0.8494823575019836,0,8.9255e-05,0.00012424147301343978,3.0158839632508583e-09,0.0010326163432537317,4.1487059359469396e-08,0.00013945647535318887,5.615897545745748e-09,-4.276063474421468,85.75963820896045,135.24107477727586,11.52058708191318,15339.713497186249,94.27606347442146,4.240361791039562,-45.241074777275834,11.52058708191318,0.0010493715092802895,4.197391994584547e-08,0
2024-02-06 10:15:47.467176,0.8183745741844177,8.906403541564941,1.6917860507965088,0,7.4934e-05,0.00012451562354774177,1.234658773324518e-09,0.0008868024456096888,2.7743061121812872e-08,0.00012125972291556752,3.749039208042318e-09,5.249942941087394,79.24470664903873,64.18536337142032,9.10252168525523,-32269.26891208196,84.7500570589126,10.755293350961272,25.814636628579688,9.10252168525523,0.0009036739668975577,2.802243953831698e-08,0
2024-02-06 10:15:47.542161,1.299349069595337,8.504395484924316,0.5742979645729065,0,7.4985e-05,0.00012456962550065815,1.2410104471752526e-09,0.0008872464209848643,2.7788299367911037e-08,0.00012131750805795945,3.755224927432144e-09,8.68679189868961,86.13670742093545,23.844900259868325,8.62223107558432,-6405.155826777481,81.3132081013104,3.863292579064557,66.15509974013167,8.62223107558432,0.0009041248480764248,2.8068334523912365e-08,0
2024-02-06 10:15:47.618041,0.5264397859573364,9.631455421447754,1.6654640436172483,0,7.588e-05,0.00012538666601351797,1.3528658876278462e-09,0.0008953622142654659,2.8586016732185557e-08,0.00012231980155662453,3.86425262348467e-09,3.1285815925018805,80.18947087173603,72.45867364723168,9.788556730394735,15370.659657490965,86.87141840749813,9.810529128263964,17.54132635276833,9.788556730394735,0.0009123362563228513,2.8877725794473634e-08,0
2024-02-06 10:15:47.692966,-0.27997025847435,10.272754669189451,1.7252867221832275,0,7.4925e-05,0.00012526897681414484,1.233177818177638e-09,0.0008858579539471866,2.7735484101864022e-08,0.00012070071806595482,3.7482103253648896e-09,-1.561133786012053,80.4662720573873,99.21730505568982,10.420388002023994,8432.849804861655,91.56113378601206,9.5337279426127,-9.217305055689817,10.420388002023994,0.0009027764365916933,2.8014761939719732e-08,0
2024-02-06 10:15:47.767952,0.708300769329071,8.839402198791504,1.6247845888137815,0,7.4986e-05,0.00012528204089472592,1.2408196242177584e-09,0.00088644087473166,2.7789539216138725e-08,0.00012080289524094023,3.7555761855707495e-09,4.58131886164757,79.58463331122638,66.4459188583474,9.015356131173021,-18737.255899114138,85.41868113835243,10.415366688773616,23.554081141652595,9.015356131173021,0.0009033639098748477,2.806960056129731e-08,0
2024-02-06 10:15:47.842228,0.5671192407608032,9.04519271850586,1.718108057975769,0,7.427599999999999e-05,0.000124829266791144,1.1520301099892732e-09,0.0008800918435360193,2.7162420101153687e-08,0.00011961616835132992,3.670227417995492e-09,3.5876583040363275,79.2449586966741,71.732792204849,9.224371569219976,2814.0373478237148,86.41234169596368,10.755041303325887,18.267207795151,9.224371569219976,0.0008969124966446266,2.743346147363992e-08,0
2024-02-06 10:15:47.918087,0.1722893863916397,9.423272132873535,1.7157150506973269,0,7.585899999999999e-05,0.00012541450871953515,1.350098058305976e-09,0.0008947096334658861,2.8567175470200698e-08,0.00012233403934184468,3.86173100738464e-09,1.0474445421036618,79.6810706552248,84.26567178056072,9.579740051694696,4684.592236579972,88.95255545789634,10.318929344775206,5.734328219439287,9.579740051694696,0.0009117015654235297,2.8858607823068563e-08,0
2024-02-06 10:15:47.992985,0.0263219885528087,9.11458683013916,2.1536173820495605,0,7.4898e-05,0.00012531907595387436,1.2296205708704037e-09,0.0008858021922341586,2.7711639537951833e-08,0.00012047482510790981,3.7450613480165345e-09,0.16546385349043374,76.70583243098831,89.29975316174959,9.36559948745907,-2859.0958935569142,89.83453614650958,13.294167569011694,0.7002468382504061,9.36559948745907,0.0009026984978660126,2.7990577291833237e-08,0
2024-02-06 10:15:48.067714,0.3756865561008453,9.48788070678711,2.3976938724517822,0,7.472900000000001e-05,0.00012528510623185113,1.208444517475711e-09,0.0008842302837272884,2.75620717937331e-08,0.00012009023930690446,3.724733600073484e-09,2.2675258729564325,75.8176465328267,81.09492201892053,9.793362885171303,5724.195395525611,87.73247412704357,14.18235346717331,8.905077981079476,9.793362885171303,0.0009011000044838291,2.783885378578348e-08,0
2024-02-06 10:15:48.157959,0.1220383122563362,9.437629699707031,2.878668546676636,0,9.0245e-05,0.00012914645576056615,3.182324575412883e-09,0.0010310543934608698,4.242085031935882e-08,0.0001610242589545027,5.90561987758548e-09,0.7408523922350826,73.03723053555025,87.57245557616926,9.867648164586939,823.1511930371237,89.25914760776492,16.962769464449757,2.4275444238307373,9.867648164586939,0.0010515135668560463,4.2948015992118365e-08,0
2024-02-06 10:15:48.232991,-0.7992312908172607,9.779815673828123,3.6659352779388423,0,7.5032e-05,0.00013429752415198984,1.1784379422080253e-09,0.0008848768952270746,2.784731897195397e-08,0.00011124272996256506,3.8346210263878036e-09,-4.67197387853544,69.45163699250551,102.29892781444102,10.474857838286503,8092.676107521654,94.67197387853544,20.548363007494498,-12.298927814441013,10.474857838286503,0.0009018968287279792,2.813478644534908e-08,0
2024-02-06 10:15:48.308000,1.019378900527954,12.237332344055176,1.70135760307312,0,7.5009e-05,0.00013429499245447816,1.1753491282670514e-09,0.000884623698024869,2.7826969715131575e-08,0.00011118100609443343,3.832063153423148e-09,4.7617873862947535,82.08489947611447,59.07180674467144,12.397017945265516,25625.726339226123,85.23821261370524,7.915100523885526,30.928193255328566,12.397017945265516,0.0009016404206898188,2.8114167195775006e-08,0
2024-02-06 10:15:48.382950,-0.5719050168991089,7.705163955688477,1.6750357151031494,0,7.495e-05,0.00013428179197491112,1.1674261131263852e-09,0.0008840353943840267,2.777479427190552e-08,0.00011108140249154724,3.825506412369863e-09,-4.244915228551825,77.73522575688257,108.85136978760916,7.905844140840773,-59922.26556937615,94.24491522855183,12.264774243117433,-18.85136978760915,7.905844140840773,0.0009010489754498386,2.806130039551567e-08,0
2024-02-06 10:15:48.458023,-0.4690099954605102,7.609447956085205,0.5336185097694397,0,7.5073e-05,0.000134217775701651,1.1839388365384935e-09,0.0008849772430166008,2.7883588549105656e-08,0.0001112172347263769,3.839177778558765e-09,-3.526976254921985,85.9886553261452,131.31300714248175,7.642539976093008,-3507.3084164448537,93.52697625492199,4.011344673854797,-41.31300714248175,7.642539976093008,0.0009019802687818312,2.817153718844358e-08,0
2024-02-06 10:15:48.532946,0.4067943692207336,11.624747276306152,1.6247845888137815,0,7.4923e-05,0.000134222441873619,1.1638058202203478e-09,0.0008835346783741713,2.7750950155001344e-08,0.00011105535449398316,3.8225073343672375e-09,2.004180650493474,82.0433453587088,75.94390369145188,11.744792712383806,54752.91614445227,87.99581934950653,7.9566546412912045,14.05609630854812,11.744792712383806,0.0009005456587836353,2.8037140382247245e-08,0
2024-02-06 10:15:48.607972,-0.0287148971110582,8.729329109191895,2.10097336769104,0,7.5026e-05,0.00013424191296643266,1.1776317344946098e-09,0.0008845829133080244,2.7842008210972972e-08,0.00011124723102874315,3.833955917521657e-09,-0.18847227076503445,76.46744290842824,90.78303704723021,8.9786469099552,-36869.16272263756,90.18847227076503,13.532557091571764,-0.7830370472302067,8.9786469099552,0.0009016006699891929,2.8129405534057675e-08,0
2024-02-06 10:15:48.682974,-0.6436922550201416,9.040407180786133,1.8592896461486816,0,7.5002e-05,0.00013424998185225824,1.1744098317567858e-09,0.0008843696764725447,2.7820780779895608e-08,0.00011119970787257707,3.831286554254842e-09,-4.072683118206276,78.37834815489708,109.09602347772216,9.252040839828696,3645.1551941747684,94.07268311820629,11.62165184510292,-19.09602347772216,9.252040839828696,0.000901386796731809,2.8107896369467956e-08,0
2024-02-06 10:15:48.757989,-1.1725249290466309,9.169623374938965,2.567590475082397,0,7.5015e-05,0.0001342381764405618,1.1761550047856893e-09,0.000884488041671157,2.7832278355063542e-08,0.00011122848259336508,3.8327323374928705e-09,-7.28689970142209,74.35719770896863,114.54445098718837,9.594234122388128,4561.664767838856,97.2868997014221,15.642802291031366,-24.544450987188373,9.594234122388128,0.0009015047194626261,2.8119546514833495e-08,0
2024-02-06 10:15:48.832959,-1.112702250480652,8.9231538772583,3.046171903610229,0,7.497e-05,0.00013428959405210116,1.170113129949604e-09,0.0008840809541829825,2.779248555265682e-08,0.00011110217293984449,3.827729897743373e-09,-7.107996351740875,71.15120420887548,110.06618085484718,9.494205847873687,-1334.2440244690065,97.10799635174088,18.848795791124505,-20.06618085484718,9.494205847873687,0.0009010973984268992,2.807922602390595e-08,0
2024-02-06 10:15:48.922893,-1.5051392316818235,9.231839179992676,2.91695499420166,0,8.9934e-05,0.00011470290408256151,3.03307500099315e-09,0.0010199166122373342,4.203819534461363e-08,0.00015571828838927305,5.8240805894078305e-09,-9.259907528044222,72.46519161010066,117.29358597495673,9.798006184433321,3378.0365218897664,99.25990752804422,17.534808389899343,-27.29358597495673,9.798006184433321,0.0010380919214893925,4.254796501015603e-08,0
2024-02-06 10:15:48.998055,-0.8494823575019836,9.030835151672363,3.534325361251831,0,7.516200000000001e-05,0.00013209413914027311,1.2102320397492948e-09,0.0008850284996236564,2.7968270748408364e-08,0.0001080691316838936,3.875746704747423e-09,-5.373695628318287,68.62651508576995,103.5148043421015,9.73494014216709,-839.0681762889568,95.37369562831829,21.373484914230055,-13.514804342101504,9.73494014216709,0.0009013341466760377,2.8261462148403986e-08,0
2024-02-06 10:15:49.072662,-0.7130866050720215,8.918368339538574,3.907618999481201,0,7.460700000000001e-05,0.0001325277520273874,1.1367994649502693e-09,0.0008800475956548454,2.747846213196858e-08,0.0001060039921237902,3.8163414128907915e-09,-4.571477207867014,66.33917710301303,100.34189283392038,9.762954091417393,375.4868745600663,94.57147720786702,23.660822896986975,-10.341892833920388,9.762954091417393,0.0008962612465244092,2.7765493979781594e-08,0
2024-02-06 10:15:49.147786,1.7516087293624878,12.38808536529541,1.689393162727356,0,7.5124e-05,0.00013279620999651648,1.205385709133446e-09,0.0008855553139375448,2.79348704840982e-08,0.00010745081976772105,3.871519481764745e-09,8.047965616549659,82.23433998465192,43.964167666315575,12.6248501542353,38095.62939696911,81.95203438345034,7.765660015348077,46.03583233368443,12.6248501542353,0.000901880660675911,2.822762134450595e-08,0
2024-02-06 10:15:49.222889,1.6056413650512695,9.521381378173828,1.1198810338974,0,7.5103e-05,0.00013276095887052516,1.2025973588603432e-09,0.0008853252645367385,2.7916276238024228e-08,0.0001074213223886565,3.869263324272104e-09,9.572035040708315,83.29183391254215,34.8944814455926,9.720541192335032,-38671.01130314725,80.42796495929169,6.708166087457856,55.10551855440741,9.720541192335032,0.0009016460706568819,2.820879150331987e-08,0
2024-02-06 10:15:49.297977,2.2230117321014404,6.4321370124816895,0.0933234170079231,0,7.5088e-05,0.0001327322439722965,1.2006061598390213e-09,0.0008852056131488085,2.790299725644158e-08,0.00010741222335527471,3.867652072679024e-09,19.06566824247231,89.1687579475666,2.4039009810934595,6.806091166635924,-38813.79215985388,70.9343317575277,0.8312420524334113,87.59609901890654,6.806091166635924,0.000901523273058551,2.8195344360360776e-08,0
2024-02-06 10:15:49.372930,1.1581674814224243,10.526402473449709,0.5527617931365967,0,7.495300000000001e-05,0.00013250401437538367,1.182702712400555e-09,0.0008840609117335083,2.778357176601204e-08,0.00010736861260358996,3.853154366251802e-09,6.278714020507451,86.99404852875712,25.513872065014656,10.604340929450736,50675.086558440766,83.72128597949255,3.0059514712428763,64.48612793498535,10.604340929450736,0.0009003604991630262,2.8074409065076087e-08,0
2024-02-06 10:15:49.447943,2.2230117321014404,9.679313659667969,1.3304568529129028,0,7.5013e-05,0.00013260544975178935,1.1906559963243678e-09,0.0008846670832175017,2.7836633605860554e-08,0.00010742510916297142,3.859598177904797e-09,12.934601822683018,82.17353069684359,30.900223496945923,10.020030415161347,-7789.45668469983,77.065398177317,7.826469303156417,59.09977650305408,10.020030415161347,0.0009009773623743899,2.8128141252194293e-08,0
2024-02-06 10:15:49.522785,2.177546262741089,8.94947624206543,1.1079164743423462,0,7.4842e-05,0.00013222920204323033,1.1680126335958942e-09,0.0008830743216809036,2.7685491715741742e-08,0.00010721662824349111,3.8412463093565445e-09,13.675215661097257,82.94287165621417,26.966593550855244,9.276977506051765,-9928.287714245782,76.32478433890275,7.057128343785835,63.033406449144756,9.276977506051765,0.0008993332112499128,2.7975093891956637e-08,0
2024-02-06 10:15:49.597835,1.7683590650558472,9.430450439453123,1.103130578994751,0,7.505000000000001e-05,0.00013263957619732124,1.1955589865329128e-09,0.0008849858340557816,2.7869369971938366e-08,0.00010744657713703818,3.86357128271612e-09,10.620533361773786,83.3281247922673,31.95657239773389,9.658021865178195,5077.206650585355,79.37946663822622,6.6718752077327075,58.043427602266114,9.658021865178195,0.0009012979255449764,2.81612912875047e-08,0
2024-02-06 10:15:49.687976,1.5266753435134888,9.46155834197998,1.4142086505889893,0,9.0141e-05,0.00015750225832718116,3.384824198937545e-09,0.001027535486316085,4.230029959480428e-08,0.00012644116029386228,5.6283712055009794e-09,9.165991827953722,81.49899728787342,42.80993461509703,9.687714383206377,329.4008057174989,80.83400817204628,8.501002712126574,47.19006538490298,9.687714383206377,0.001047197929731268,4.280713659069974e-08,0
2024-02-06 10:15:49.762957,0.7298369407653809,9.21748161315918,1.739644169807434,0,7.4981e-05,0.00014039789521234734,1.1267410351079193e-09,0.0008859483634561302,2.7796092013530887e-08,0.0001025349559152574,3.892732244635852e-09,4.527214367051294,79.3121063084951,67.24037650116307,9.40855945863012,-3723.008823251966,85.47278563294871,10.687893691504907,22.759623498836934,9.40855945863012,0.0009028452186699537,2.808995622839771e-08,0
2024-02-06 10:15:49.838001,-0.5647262930870056,11.734821319580078,1.998078227043152,0,7.5044e-05,0.00014040309619774922,1.1355862663373358e-09,0.0008866083609985113,2.7851927550351197e-08,0.00010265269417075817,3.8991956556135605e-09,-2.7551752744944875,80.33696651203243,105.78213444500771,11.917099638333097,33427.59154233485,92.75517527449449,9.663033487967569,-15.782134445007706,11.917099638333097,0.0009035070507942349,2.8146458946003522e-08,0
2024-02-06 10:15:49.912787,1.1725249290466309,10.3804349899292,2.263690948486328,0,7.4786e-05,0.00014032469017371044,1.099372381895418e-09,0.0008837554929345847,2.762355061319383e-08,0.00010210292594711487,3.872782180618355e-09,6.4445449640982675,77.69794452792651,62.61718008583997,10.688898072282342,-16422.88083398972,83.55545503590173,12.30205547207349,27.382819914160038,10.688898072282342,0.0009006329982025756,2.7915365122675195e-08,0
2024-02-06 10:15:49.987897,0.3948298394680023,8.339284896850586,0.8470894694328308,0,7.510999999999999e-05,0.0001405786016462098,1.144878715170244e-09,0.000886788087556243,2.791037867323334e-08,0.00010260687237481777,3.9059451679465075e-09,2.7106883888978732,84.19989255441011,65.00969377640321,8.391491152482889,-30587.2309918713,87.28931161110214,5.800107445589884,24.99030622359679,8.391491152482889,0.0009037054972340296,2.8205609240197824e-08,0
2024-02-06 10:15:50.062958,-0.8949476480484009,8.375178337097168,1.2132043838500977,0,7.5061e-05,0.00014059085453252003,1.1379900634938672e-09,0.0008863785832070114,2.786693608979965e-08,0.00010255639517541236,3.900918667891528e-09,-6.099318780300023,81.75762963738576,126.41517987001431,8.509783096408636,1575.9441511004047,96.09931878030002,8.242370362614245,-36.41517987001431,8.509783096408636,0.000903299836896713,2.81616461676354e-08,0
2024-02-06 10:15:50.137992,-0.6891575455665588,11.170095443725586,2.0842230319976807,0,7.5034e-05,0.00014061223995263383,1.1341938217183168e-09,0.0008861147220109702,2.7843007430179204e-08,0.0001025118799052984,3.898150246177938e-09,-3.5304830175095705,79.43074657491084,108.2966962933397,11.383758429958887,38302.30740131474,93.53048301750958,10.569253425089165,-18.296696293339703,11.383758429958887,0.0009030391952239916,2.8137431185593602e-08,0
2024-02-06 10:15:50.212944,-0.5766908526420593,8.458930015563965,2.278048515319824,0,7.495200000000001e-05,0.00014066413973696037,1.1226614901510448e-09,0.0008853099319671395,2.777037901936611e-08,0.0001023330267718584,3.889751605004175e-09,-3.900127137762443,74.92744288933535,104.2060501592588,8.779269581570032,-34748.757183115245,93.90012713776245,15.072557110664652,-14.206050159258789,8.779269581570032,0.0009022372881985593,2.8063935704910495e-08,0
2024-02-06 10:15:50.287992,-0.8470894694328308,9.581204414367676,2.1129379272460938,0,7.5048e-05,0.00014059579828150078,1.13616196717593e-09,0.0008861758584197761,2.7855410337304675e-08,0.00010254379412110154,3.899585692407037e-09,-5.052473612191154,77.56364881481929,111.846144937992,9.84792086094916,14239.570399999026,95.05247361219115,12.43635118518072,-21.84614493799199,9.84792086094916,0.0009031002492819888,2.8149982551463558e-08,0
2024-02-06 10:15:50.362125,-1.3711363077163696,9.021263122558594,2.275655508041382,0,7.4133e-05,0.00014161063657454654,1.007052523229288e-09,0.0008776652295216324,2.704845303957148e-08,0.00010053601262445752,3.806676680820943e-09,-8.642208576884919,75.84223856746678,121.06995847830844,9.404350647017198,-5983.43806310228,98.64220857688493,14.15776143253323,-31.06995847830844,9.404350647017198,0.0008946828026383055,2.7333564604177628e-08,0
2024-02-06 10:15:50.452982,-1.1629533767700195,9.049978256225586,2.4216229915618896,0,9.085699999999999e-05,0.00012042057863287137,3.1981575447937146e-09,0.0010287769499310257,4.2990122544154594e-08,0.00013981465543814006,5.816488967160382e-09,-7.322574758565948,75.01956187869982,115.65204913462914,9.440276738949862,395.41358324250257,97.32257475856595,14.98043812130018,-25.65204913462914,9.440276738949862,0.001045194367734033,4.3499544732650345e-08,0
2024-02-06 10:15:50.527947,-0.6771929860115051,9.093050956726074,2.2732627391815186,0,7.4965e-05,0.00013504238163153335,1.1682488625327562e-09,0.0008846124398049119,2.7786330453312844e-08,0.00010250909342165296,3.890984458720468e-09,-4.259165035983664,75.96375653207353,106.58851674114753,9.397334171097206,-572.8348943194237,94.25916503598367,14.036243467926479,-16.58851674114752,9.397334171097206,0.0009007128997235716,2.808175075602506e-08,0
2024-02-06 10:15:50.602936,-0.2273262739181518,9.839637756347656,2.5963053703308105,0,7.4989e-05,0.0001350315274004142,1.1714897494411394e-09,0.0008848396320694688,2.7807563878175334e-08,0.0001025675282389671,3.893445378180395e-09,-1.3234754957446064,75.21872042387355,95.00391989208552,10.178946408492603,10423.025208969271,91.3234754957446,14.781279576126455,-5.003919892085516,10.178946408492603,0.0009009410556312622,2.8103236717231017e-08,0
2024-02-06 10:15:50.677222,0.1387886703014373,8.920761108398438,2.8906328678131104,0,7.4286e-05,0.00013506264836808546,1.0765516466585122e-09,0.0008782453518685106,2.7187839506321137e-08,0.00010063886944825953,3.822018329393336e-09,0.8913324161546364,72.04589550165505,87.25115455938617,9.378432674205195,-10776.104976542125,89.10866758384536,17.954104498344947,2.7488454406138416,9.378432674205195,0.0008942510828098947,2.7476269844715422e-08,0
2024-02-06 10:15:50.752255,0.8088029623031616,9.363449096679688,3.5175747871398926,0,7.5033e-05,0.00013541657384286327,1.1775756361543013e-09,0.0008850745043801073,2.7846439472629996e-08,0.00010303233500738448,3.898089524257518e-09,4.936883242505648,69.4102646375915,77.05093658069234,10.035022351796945,8750.678735912867,85.06311675749436,20.589735362408515,12.949063419307668,10.035022351796945,0.0009012825244240043,2.814260076149389e-08,0
2024-02-06 10:15:50.827925,0.8111958503723145,8.789151191711426,3.0126712322235107,0,7.567e-05,0.00013593254346470042,1.2640003300167603e-09,0.0008908561075719598,2.841207337253673e-08,0.00010511221836455172,3.96438356450648e-09,5.2731822610181975,71.07974247579968,74.92987941470223,9.326489443080433,-9363.458553145392,84.72681773898181,18.920257524200327,15.07012058529777,9.326489443080433,0.0009072766056834944,2.8715151875050605e-08,0
2024-02-06 10:15:50.902977,-0.3062922358512878,14.13251495361328,-0.3421858549118042,0,7.5052e-05,0.00013577652824781343,1.1800422268575936e-09,0.0008837733127330544,2.786371288166248e-08,0.0001042870383829624,3.899679194171498e-09,-1.241569921314528,91.38701252998389,-131.8318798181419,14.139974717344705,64135.33649022374,91.24156992131452,-1.3870125299838827,-138.1681201818581,14.139974717344705,0.0009002034882718884,2.816001585628717e-08,0
2024-02-06 10:15:50.977943,1.3113136291503906,7.382121562957764,0.7489802241325378,0,7.4966e-05,0.00013573331232790157,1.168367303712838e-09,0.0008828481833628419,2.7787748157330357e-08,0.00010426954622508591,3.890711261033352e-09,10.07259611453396,84.20667080358764,29.733620147795563,7.535000569371125,-88106.26347909159,79.92740388546605,5.793329196412357,60.26637985220444,7.535000569371125,0.0008992867091270498,2.808312062304212e-08,0
2024-02-06 10:15:51.052919,0.382865309715271,9.121766090393066,-0.0239290818572044,0,7.4976e-05,0.0001357417832225959,1.1697246791905898e-09,0.0008829307028011086,2.7796577051761172e-08,0.00010427317148079729,3.891753974621882e-09,2.403448828004438,90.1503033775982,-3.5763343749973453,9.129828862261697,21271.184017426538,87.59655117199557,-0.15030337759820322,93.57633437499734,9.129828862261697,0.0008993694190664777,2.809205760741973e-08,0
2024-02-06 10:15:51.127923,0.0119645409286022,9.736742973327637,0.9451987147331238,0,7.5004e-05,0.00013574731084050492,1.1735255265074742e-09,0.0008831947219280008,2.7821302807707386e-08,0.00010428606925565756,3.8946738039921926e-09,0.07040520180767573,84.45535971773758,89.27477568665073,9.782520507988618,8702.091164830164,89.92959479819233,5.5446402822624306,0.7252243133492751,9.782520507988618,0.0008996309429331025,2.811708619539042e-08,0
2024-02-06 10:15:51.217927,1.6534994840621948,9.317984580993652,1.6606782674789429,0,9.0004e-05,0.0001482382910279359,3.30341754052078e-09,0.0010261051785854104,4.214105206155797e-08,0.00012383014662224805,5.605545423076484e-09,10.062529866472138,79.8946814331929,45.12410720829483,9.608160568158,-1937.2465649373105,79.93747013352787,10.105318566807103,44.875892791705176,9.608160568158,0.0010441265889053718,4.26403913653725e-08,0
2024-02-06 10:15:51.292996,0.952377438545227,9.514202117919922,1.4524952173233032,0,7.5069e-05,0.00012877890510836499,1.2347916283729523e-09,0.0008854758244112732,2.786632092168023e-08,0.00010058252362448727,3.929743808008988e-09,5.71630055162626,81.31990362584814,56.747797298949166,9.671442864558989,842.9884026827087,84.28369944837374,8.680096374151855,33.252202701050834,9.671442864558989,0.0009004267244348114,2.8169122074927328e-08,0
2024-02-06 10:15:51.367942,0.7011220455169678,8.853759765625,1.32806396484375,0,7.4946e-05,0.00012867721489009517,1.2189580769930471e-09,0.0008843461947554352,2.7757476867501476e-08,0.00010041151923478399,3.917382674373143e-09,4.527757610403919,81.46923439005187,62.16917572830631,8.980222046521257,-9222.91807485031,85.47224238959609,8.530765609948133,27.8308242716937,8.980222046521257,0.0008992822087672631,2.8059031841117133e-08,0
2024-02-06 10:15:51.442905,1.1677391529083252,8.523538589477539,0.9069121479988098,0,7.496300000000001e-05,0.0001286931002102818,1.2211457246714016e-09,0.0008844939017914537,2.7772512008322135e-08,0.00010043051653174317,3.919089831677159e-09,7.801053090433335,83.92652846540949,37.83431884061909,8.650827385847878,-4394.096563282949,82.19894690956666,6.073471534590511,52.16568115938091,8.650827385847878,0.0008994318567845126,2.8074238818568806e-08,0
2024-02-06 10:15:51.517984,0.7226582169532776,8.164602279663086,0.1507532149553299,0,7.5079e-05,0.00012880274325773375,1.2360804835925461e-09,0.0008854618139618638,2.7875169439835825e-08,0.00010049186112279451,3.9307433295811225e-09,5.0581331298383025,88.94219690344056,11.783441350013696,8.19790777061008,-6032.573892004397,84.9418668701617,1.0578030965594447,78.21655864998631,8.19790777061008,0.0009004062332121402,2.817807142769927e-08,0
2024-02-06 10:15:51.592785,-0.4857603311538696,7.169152736663818,-0.1938255578279495,0,7.4801e-05,0.00012876981445160762,1.2002778980709477e-09,0.0008833304220145944,2.7629307319035096e-08,0.0001004978481784538,3.902805759988249e-09,-3.876265776225167,91.54867418781478,-158.24726929918972,7.188204393852776,-13498.527783817108,93.87626577622517,-1.5486741878147827,-111.75273070081028,7.188204393852776,0.0008983062490369765,2.79293963909441e-08,0
2024-02-06 10:15:51.667951,2.5245180130004883,8.875295639038086,-2.72552227973938,0,7.516599999999999e-05,0.0001291418877285446,1.2473467837188239e-09,0.0008862585338431599,2.7952257303479124e-08,9.996506719809779e-05,3.939390242044469e-09,15.878045020275689,107.07124423940107,-47.19256867676529,9.621462236876894,32371.78834877629,74.12195497972431,-17.071244239401068,137.1925686767653,9.621462236876894,0.0009011796883173964,2.8256032238052656e-08,0
2024-02-06 10:15:51.742968,0.4044014811515808,8.293819427490234,-2.950455665588379,0,7.5017e-05,0.00012892368322623028,1.2281208986826948e-09,0.0008849794347707036,2.78203000748174e-08,0.00010038792755502468,3.924463943935362e-09,2.7914957648311116,109.58258280917288,-82.19543805424952,8.812273820551345,-10786.733891325284,87.20850423516889,-19.582582809172873,172.19543805424954,8.812273820551345,0.0008999375823147315,2.8122567351540204e-08,0
2024-02-06 10:15:51.817934,-0.0550368875265121,3.364428758621216,-6.482388019561768,0,7.4966e-05,0.00012891477442909284,1.2215460180124836e-09,0.0008846821494419577,2.7775173704419976e-08,0.00010062846506899602,3.9193380259234496e-09,-0.9371873691609153,152.5702043416505,-90.48644197128083,7.303681562539815,-20123.686177887717,90.93718736916091,-62.57020434165051,-179.5135580287192,7.303681562539815,0.0008996708356890805,2.8076923968737645e-08,0
2024-02-06 10:15:51.892611,-1.306527853012085,3.2902486324310303,-5.896125316619873,0,7.467699999999999e-05,0.00012911152053410066,1.1842612183903008e-09,0.0008837205485589507,2.7519639514558836e-08,0.00010241716024607434,3.889997933065421e-09,-21.657577517311555,150.83692142288535,-102.49433449637782,6.877284699879483,-5709.8820608799515,111.65757751731155,-60.83692142288535,-167.50566550362217,6.877284699879483,0.000898955542500757,2.781843125634342e-08,0
2024-02-06 10:15:51.982953,-1.7085363864898682,3.857367753982544,-6.848503112792969,1,9.034200000000001e-05,0.00010549602987820159,3.021824856994661e-09,0.0009397042539055351,4.180161427986194e-08,2.5948580726981236e-06,4.712504566547207e-09,-23.889896487189137,150.60994150536652,-104.0079769431803,8.043654484086147,12910.60397386226,113.88989648718913,-60.60994150536651,-165.9920230568197,8.043654484086147,0.0009456110354773988,4.2174803866271116e-08,0
2024-02-06 10:15:52.057903,1.2945632934570312,3.2352118492126465,-9.363449096679688,1,7.495e-05,0.00010868196680218231,1.3735109945424257e-09,0.000885119761279345,2.7757768658999096e-08,0.00012736204227679971,3.7123562614574712e-09,21.808715332267635,160.93920250190698,-82.12835426988352,9.990829235662268,25979.64978753997,68.19128466773238,-70.93920250190699,172.12835426988352,9.990829235662268,0.0009008162140681709,2.803857775263617e-08,0
2024-02-06 10:15:52.132914,0.7178724408149719,4.6757426261901855,-11.0432710647583,1,7.501099999999999e-05,0.00010874334609207759,1.3801424665856991e-09,0.0008853610453908447,2.7811768323602522e-08,0.00012673963731187602,3.720106362684924e-09,8.72853391259333,157.0521054741257,-86.28069696044821,12.013814787875726,26969.185215681136,81.27146608740667,-67.05210547412572,176.2806969604482,12.013814787875726,0.0009009729361533655,2.80933878673168e-08,0
2024-02-06 10:15:52.207914,-7.384514331817627,4.240232944488525,-15.056178092956545,1,7.5e-05,0.0001087800126224781,1.3789460881127695e-09,0.000885312007525206,2.7802029621811485e-08,0.0001268831842822434,3.7187114371661566e-09,-60.135296010603206,164.27132347445252,-116.1262911269814,17.297373387516682,70447.44799521276,150.1352960106032,-74.27132347445249,-153.8737088730186,17.297373387516682,0.0009009493794148807,2.8083503309931174e-08,0
2024-02-06 10:15:52.282954,2.0411505699157715,-2.3354783058166504,-13.18492317199707,1,7.504e-05,0.00010867314534724004,1.3832951512721646e-09,0.0008853501026179795,2.7837442864014355e-08,0.00012631836225694424,3.723775468096941e-09,138.84734094713207,-169.95524541004144,-81.19992945941571,13.544849708190673,-50006.97866905662,-48.847340947132054,-100.04475458995857,171.19992945941573,13.544849708190673,0.0009008945473076222,2.8119445841260767e-08,0
2024-02-06 10:15:52.357945,-3.91479754447937,-0.8949476480484009,-11.277775764465332,1,7.4991e-05,0.00010871904969811685,1.3779690424935533e-09,0.0008854292480538491,2.7794058769922895e-08,0.00012691769838088756,3.7175711846113143e-09,-102.87690403105103,-175.4628026335493,-109.14316454882996,11.971415843607248,-20981.635990764556,-167.12309596894897,-94.53719736645071,-160.85683545117004,11.971415843607248,0.0009010620884482757,2.8075413391447162e-08,0
2024-02-06 10:15:52.432908,-4.647027492523193,1.3783150911331177,-10.717835426330566,1,7.496300000000001e-05,0.00010883891524863486,1.3749232309842996e-09,0.000885422480909646,2.7769266845717413e-08,0.00012722563693755865,3.7140131779168567e-09,-73.47956701876491,172.67197529103728,-113.44053823261265,11.76293387011158,-2781.1316715668913,163.47956701876493,-82.67197529103728,-156.55946176738738,11.76293387011158,0.0009011133346404654,2.8050249355852447e-08,0
2024-02-06 10:15:52.507914,-3.56782603263855,2.9480626583099365,-7.508945465087891,1,7.5006e-05,0.00010866229589784389,1.3795995070239489e-09,0.0008855154980312589,2.7807342012264642e-08,0.00012683376114839314,3.7194754549757047e-09,-50.43338278202349,158.56469315133262,-115.41442238851803,8.820698273615236,-39226.66981969901,140.4333827820235,-68.5646931513326,-154.58557761148197,8.820698273615236,0.000901128178879335,2.808889571070756e-08,0
2024-02-06 10:15:52.582913,-0.4402951002120971,3.4314301013946533,-7.0854010581970215,1,7.499899999999999e-05,0.0001086763243218089,1.3788388218531785e-09,0.0008854931698065999,2.7801143481927195e-08,0.00012688484136122476,3.718587439866919e-09,-7.311807408241756,154.15928721018093,-93.55585437929003,7.884889375985409,-12477.618336642174,97.31180740824176,-64.15928721018095,-176.44414562071,7.884889375985409,0.0009011151203977781,2.808260436546597e-08,0
2024-02-06 10:15:52.657190,-8.693434715270996,2.601091146469116,-8.901618003845215,1,7.4277e-05,0.00011197360078519829,1.2991841988895493e-09,0.000883315429636121,2.7162603577528374e-08,0.000132656155242622,3.6248931400929306e-09,-73.34272332885504,163.7114097917111,-134.322112447239,12.711423420974544,64980.19635942668,163.34272332885504,-73.71140979171108,-135.677887552761,12.711423420974544,0.0009002121366821281,2.743418967218996e-08,0
2024-02-06 10:15:52.747865,-2.9983139038085938,6.807823657989502,-9.987998008728027,1,9.067500000000001e-05,1.6112953857364646e-05,2.3493658604039238e-09,0.0009604591221178773,4.227971112735942e-08,-2.2219806444466163e-05,4.530360763889011e-09,-23.769738474850964,145.7216411370279,-106.70931935828557,12.453772659174751,-2841.475178382056,113.76973847485097,-55.72164113702788,-163.29068064171443,12.453772659174751,0.0009608512227914802,4.258659016181005e-08,0
2024-02-06 10:15:52.822864,-0.8183745741844177,7.836773872375488,-10.136358261108398,1,7.499899999999999e-05,4.602815814787391e-05,1.8623038245068635e-09,0.0008456747666748764,2.8123233707001802e-08,0.0001355148979985119,3.6423538362883993e-09,-5.961645950610758,142.29113344890024,-94.61585151359382,12.838633901936728,5131.551657515122,95.96164595061076,-52.291133448900226,-175.3841484864062,12.838633901936728,0.0008576996501763536,2.841920461839388e-08,0
2024-02-06 10:15:52.897925,-5.508474349975586,5.171074390411377,-4.989213466644287,1,7.5061e-05,4.58320258312249e-05,1.865151490210216e-09,0.0008460780099710229,2.8175678043077836e-08,0.00013504600527495148,3.6507412242898784e-09,-46.80954890862963,133.9745614518796,-137.83178816940904,9.05403506903149,-50420.30925387667,136.8095489086296,-43.97456145187961,-132.168211830591,9.05403506903149,0.0008580128187207012,2.8472364404020636e-08,0
2024-02-06 10:15:52.972403,-5.474973678588867,6.520674705505371,-4.060765266418457,1,7.4478e-05,4.9033700931551465e-05,1.8374981308588667e-09,0.0008426698651095632,2.768340803749184e-08,0.0001376840740756393,3.5712404061591805e-09,-40.017928577292,121.91268172857995,-143.4358253638024,9.433151644345013,5090.316272100793,130.017928577292,-31.912681728579955,-126.56417463619763,9.433151644345013,0.0008552506706486002,2.797322358952864e-08,0
2024-02-06 10:15:53.047726,-6.130630493164063,5.714264392852783,-3.838224649429321,1,7.5323e-05,4.4130333168985875e-05,1.8768599352663434e-09,0.0008478391268786195,2.8397648086606843e-08,0.00013434675083619362,3.6861734296844294e-09,-47.013205018098475,123.8889347728534,-147.95041266460183,9.217885671596555,-2857.9049260977163,137.0132050180985,-33.88893477285341,-122.04958733539819,9.217885671596555,0.0008595508832129414,2.869733253494277e-08,0
2024-02-06 10:15:53.122864,-6.422565460205078,5.848267555236816,-3.117959260940552,1,7.5138e-05,4.5291503794672514e-05,1.868588415347205e-09,0.0008467695926734211,2.824089678004828e-08,0.00013499019784790284,3.6612597619311507e-09,-47.679594167279085,118.0639681505873,-154.10484383734195,9.22893549880699,147.0604382660588,137.6795941672791,-28.0639681505873,-115.89515616265804,9.22893549880699,0.0008586573338109389,2.8538477476061107e-08,0
2024-02-06 10:15:53.197914,-6.599640369415283,6.602033615112305,-2.921740770339966,1,7.505000000000001e-05,4.5864480851175744e-05,1.864577552022788e-09,0.0008462217794219258,2.8166405159676092e-08,0.00013525594464927913,3.6493689316612762e-09,-44.98961322053281,113.87186405078418,-156.12044729397596,9.781547423069394,7363.250156727569,134.98961322053282,-23.871864050784172,-113.87955270602403,9.781547423069394,0.0008581893853542627,2.8462974592721505e-08,0
2024-02-06 10:15:53.272401,-6.9178972244262695,6.405815124511719,-2.567590475082397,1,7.4487e-05,4.9669667683842244e-05,1.8376846892101798e-09,0.0008425600700017216,2.769101306906332e-08,0.00013680119139486557,3.5727848478648475e-09,-47.201016381787106,111.84199005049524,-159.63749796617623,9.771606329815054,-133.46078180542474,137.2010163817871,-21.84199005049524,-110.36250203382377,9.771606329815054,0.0008550374924038033,2.7980959264777286e-08,0
2024-02-06 10:15:53.347766,-6.776715755462647,6.499138355255127,-2.6465563774108887,1,7.536500000000001e-05,4.365773258567091e-05,1.8786554179284966e-09,0.0008482253445793393,2.843326786606442e-08,0.00013451218092662098,3.691891418313982e-09,-46.1977908500002,112.15696411643836,-158.66752903827106,9.755354245228528,-215.64498887448997,136.1977908500002,-22.156964116438363,-111.33247096172896,9.755354245228528,0.0008599335786087766,2.873343226917564e-08,0
2024-02-06 10:15:53.422576,-6.774322986602783,6.063629150390625,-2.9887421131134038,1,7.481e-05,4.741814583659414e-05,1.8533818616663176e-09,0.0008447391765965225,2.796347021143811e-08,0.0001360759762577415,3.61680320469532e-09,-48.16859236239298,116.23853046967639,-156.19355943020577,9.570351603728014,-2472.9667357373874,138.16859236239299,-26.238530469676377,-113.80644056979422,9.570351603728014,0.0008569419048839009,2.8257246079769247e-08,0
2024-02-06 10:15:53.512256,-7.317512989044189,6.130630493164063,-3.1083877086639404,1,8.968e-05,-5.735465464234109e-05,1.7795039186955891e-09,0.0009354034970463516,4.1198830989972876e-08,9.074381603282695e-05,5.303208360375696e-09,-50.043641556190664,116.88618336397535,-156.98482367034194,10.039556799775402,5231.993711500766,140.04364155619066,-26.886183363975352,-113.01517632965808,10.039556799775402,0.0009415432538358955,4.157684846222187e-08,0
2024-02-06 10:15:53.587549,-7.516124248504639,5.742979526519775,-3.912404775619507,1,7.5293e-05,4.9351114825966385e-05,1.8370773823646806e-09,0.0008499906833697559,2.8355597953149612e-08,0.0001412478867685199,3.6343760462742077e-09,-52.61699281692994,124.2646475891469,-152.50145060486003,10.236251691379762,2612.3928068261216,142.61699281692995,-34.26464758914689,-117.49854939513999,10.236251691379762,0.0008630588971017696,2.8646526453222736e-08,0
2024-02-06 10:15:53.662221,-7.274440765380859,5.312255859375,-3.510396242141724,0,7.4672e-05,5.394358526277778e-05,1.8050043779871258e-09,0.0008465580327824356,2.782881957678436e-08,0.00014355266648453474,3.5459454744891353e-09,-53.860722098100936,123.45716019064334,-154.23963329806583,9.66749360182574,-7616.751788542182,143.86072209810095,-33.457160190643336,-115.76036670193416,9.66749360182574,0.0008603358537886759,2.811182970120976e-08,0
