timestamp,timestamp_local,ax,ay,az,fall_state
1239658,2024-02-06 10:09:00.744163,0.4737958014011383,9.621883392333984,1.5123178958892822,0
1239735,2024-02-06 10:09:00.819065,0.5144752264022827,9.600347518920898,1.524282455444336,0
1239811,2024-02-06 10:09:00.894707,0.43790218234062195,9.648205757141113,1.4381377696990967,0
1239887,2024-02-06 10:09:00.969533,0.4307234585285187,9.664956092834473,1.4883887767791748,0
1239963,2024-02-06 10:09:01.044500,0.44747382402420044,9.609918594360352,1.5362470149993896,0
1240040,2024-02-06 10:09:01.119285,0.4450809061527252,9.547703742980957,1.5075321197509766,0
1240117,2024-02-06 10:09:01.209678,0.4833674430847168,9.650598526000977,1.5099250078201294,0
1240193,2024-02-06 10:09:01.284540,0.48576033115386963,9.418486595153809,1.5793193578720093,0
1240269,2024-02-06 10:09:01.358846,0.7537660598754883,9.509416580200195,1.5194966793060303,0
1240346,2024-02-06 10:09:01.434305,1.5960696935653687,9.143301963806152,1.2921704053878784,0
1240422,2024-02-06 10:09:01.509700,1.531461238861084,9.356270790100098,0.5192610621452332,0
1240499,2024-02-06 10:09:01.584559,1.416601538658142,10.150715827941895,1.0839873552322388,0
1240576,2024-02-06 10:09:01.659004,1.524282455444336,9.485487937927246,0.9428057670593262,0
1240652,2024-02-06 10:09:01.734008,1.5194966793060303,9.56684684753418,1.2514909505844116,0
1240729,2024-02-06 10:09:01.809670,1.8186101913452148,9.128944396972656,0.9308412671089172,0
1240805,2024-02-06 10:09:01.884260,2.036364793777466,9.40173625946045,0.9715206623077393,0
1240881,2024-02-06 10:09:01.973901,2.115330696105957,9.179195404052734,0.6963362693786621,0
1240958,2024-02-06 10:09:02.049421,1.1820966005325317,9.353878021240234,0.7824809551239014,0
1241035,2024-02-06 10:09:02.124535,-2.409658432006836,11.895146369934082,-0.3804723918437958,0
1241111,2024-02-06 10:09:02.214492,-2.5532329082489014,11.813787460327148,-0.16511066257953644,0
1241188,2024-02-06 10:09:02.274557,-2.3091564178466797,9.492666244506836,-0.40679436922073364,0
1241264,2024-02-06 10:09:02.349643,-2.416837215423584,8.731721878051758,0.08375178277492523,0
1241340,2024-02-06 10:09:02.424517,-2.529303789138794,9.22705364227295,-0.009571632370352745,0
1241417,2024-02-06 10:09:02.499441,-2.158403158187866,9.191160202026367,0.016750356182456017,0
1241494,2024-02-06 10:09:02.574502,-1.6367491483688354,9.095443725585938,-0.06460852175951004,0
1241570,2024-02-06 10:09:02.649632,-1.1533817052841187,9.959283828735352,0.39961564540863037,0
1241647,2024-02-06 10:09:02.738925,-1.2586696147918701,9.514202117919922,0.8375178575515747,0
1241723,2024-02-06 10:09:02.814035,-1.2275618314743042,9.440022468566895,1.208418607711792,0
1241799,2024-02-06 10:09:02.889689,-1.019378900527954,9.109801292419434,1.3902796506881714,0
1241876,2024-02-06 10:09:02.964659,-0.7561589479446411,9.413700103759766,1.3113136291503906,0
1241953,2024-02-06 10:09:03.039029,-1.0169858932495117,10.375649452209473,2.493410348892212,0
1242029,2024-02-06 10:09:03.114614,-0.9451987147331238,11.629533767700195,1.8353605270385742,0
1242106,2024-02-06 10:09:03.188871,-0.2416837215423584,9.964069366455078,0.36611494421958923,0
1242182,2024-02-06 10:09:03.264678,0.8231604099273682,7.942061901092529,-0.6125844717025757,0
1242259,2024-02-06 10:09:03.339644,0.8877689242362976,10.851838111877441,-0.01914326474070549,0
1242335,2024-02-06 10:09:03.414624,0.3110780417919159,9.10740852355957,0.43550926446914673,0
1242412,2024-02-06 10:09:03.504634,0.4307234585285187,9.480701446533203,0.6412993669509888,0
1242489,2024-02-06 10:09:03.578917,0.5719050168991089,9.420879364013672,0.6389064788818359,0
1242565,2024-02-06 10:09:03.669628,0.4714028835296631,9.394556999206543,0.8638398051261902,0
1242641,2024-02-06 10:09:03.729625,0.4139730930328369,9.327555656433105,1.3807079792022705,0
1242718,2024-02-06 10:09:03.804406,0.45943835377693176,9.607525825500488,1.651106595993042,0
1242794,2024-02-06 10:09:03.894640,0.11246667802333832,10.083714485168457,2.373764753341675,0
1242871,2024-02-06 10:09:03.954606,0.12921704351902008,11.014555931091309,2.4359803199768066,0
1242948,2024-02-06 10:09:04.044647,-0.36850783228874207,9.413700103759766,0.18903973698616028,0
1243024,2024-02-06 10:09:04.104104,-1.268241286277771,8.068885803222656,-0.7106937170028687,0
1243100,2024-02-06 10:09:04.178888,-0.904519259929657,11.007377624511719,0.4714028835296631,0
1243177,2024-02-06 10:09:04.269550,-0.5958341360092163,9.172017097473145,0.7346227765083313,0
1243253,2024-02-06 10:09:04.343925,-0.7753022313117981,9.164837837219238,1.237133502960205,0
1243330,2024-02-06 10:09:04.419706,-0.746587336063385,9.119372367858887,1.1270596981048584,0
1243407,2024-02-06 10:09:04.493918,-0.5240468978881836,9.054763793945312,1.7635732889175415,0
1243483,2024-02-06 10:09:04.569622,-0.5647262930870056,9.138516426086426,1.9526129961013794,0
1243559,2024-02-06 10:09:04.644343,-0.5192610621452332,10.394792556762695,2.699200391769409,0
1243636,2024-02-06 10:09:04.719633,0.12921704351902008,10.413935661315918,3.374000310897827,0
1243712,2024-02-06 10:09:04.793919,0.5240468978881836,12.31629753112793,0.08375178277492523,0
1243789,2024-02-06 10:09:04.868881,1.1462029218673706,7.078222274780273,-0.32543548941612244,0
1243866,2024-02-06 10:09:04.943895,0.8159816861152649,9.815709114074707,0.9930568337440491,0
1243942,2024-02-06 10:09:05.034089,0.5575475692749023,9.590775489807129,1.1198810338974,0
1244018,2024-02-06 10:09:05.109520,0.9475916028022766,9.27969741821289,1.3184924125671387,0
1244095,2024-02-06 10:09:05.184677,0.9571632146835327,9.13133716583252,1.5482115745544434,0
1244171,2024-02-06 10:09:05.259377,0.6436922550201416,8.731721878051758,1.5769264698028564,0
1244248,2024-02-06 10:09:05.334292,0.5144752264022827,9.049978256225586,2.3426570892333984,0
1244325,2024-02-06 10:09:05.409639,0.6269419193267822,10.497687339782715,2.852346420288086,0
1244401,2024-02-06 10:09:05.484786,-0.18425391614437103,11.95257568359375,3.3046059608459473,0
1244478,2024-02-06 10:09:05.559014,0.5264397859573364,9.911425590515137,1.3208853006362915,0
1244554,2024-02-06 10:09:05.634677,-0.1411815732717514,7.382121562957764,-0.08614469319581985,0
1244630,2024-02-06 10:09:05.709467,-0.3541503846645355,10.851838111877441,1.208418607711792,0
1244707,2024-02-06 10:09:05.799540,0.09332341700792313,9.332341194152832,1.3711363077163696,0
1244784,2024-02-06 10:09:05.874258,-0.08375178277492523,9.152873039245605,1.3639576435089111,0
1244860,2024-02-06 10:09:05.949063,-0.4020085632801056,9.102622032165527,1.517103672027588,0
1244937,2024-02-06 10:09:06.024448,-0.35893622040748596,9.009299278259277,1.7013576030731201,0
1245013,2024-02-06 10:09:06.099328,-0.3924369215965271,9.394556999206543,2.1105449199676514,0
1245089,2024-02-06 10:09:06.174345,-0.014357448555529118,10.358899116516113,2.718343496322632,0
1245166,2024-02-06 10:09:06.249639,0.363722026348114,11.96932601928711,2.8858470916748047,0
1245243,2024-02-06 10:09:06.324415,0.7394086122512817,8.877689361572266,0.9858781099319458,0
1245319,2024-02-06 10:09:06.399625,1.8808257579803467,7.408443450927734,-0.3709007501602173,0
1245396,2024-02-06 10:09:06.474490,1.2586696147918701,10.669977188110352,0.46661707758903503,0
1245472,2024-02-06 10:09:06.564589,1.0265575647354126,9.676919937133789,1.0935590267181396,0
1245548,2024-02-06 10:09:06.639577,1.4524952173233032,8.985369682312012,1.517103672027588,0
1245625,2024-02-06 10:09:06.714041,1.0600582361221313,9.157659530639648,1.3113136291503906,0
1245702,2024-02-06 10:09:06.789652,0.9188767075538635,9.734350204467773,1.531461238861084,0
1245778,2024-02-06 10:09:06.864631,-0.04307234659790993,10.643654823303223,1.5960696935653687,0
1245855,2024-02-06 10:09:06.939461,0.8877689242362976,9.708027839660645,1.0528795719146729,0
1245931,2024-02-06 10:09:07.014062,0.7370156645774841,9.076300621032715,0.7872667908668518,0
1246007,2024-02-06 10:09:07.089259,0.21775463223457336,11.531424522399902,1.3496001958847046,0
1246084,2024-02-06 10:09:07.163887,-0.28714898228645325,9.116979598999023,1.1342384815216064,0
1246161,2024-02-06 10:09:07.239600,-0.6030128598213196,9.095443725585938,0.9332341551780701,0
1246237,2024-02-06 10:09:07.329064,-1.0361292362213135,9.796566009521484,1.1270596981048584,0
1246314,2024-02-06 10:09:07.404613,-1.1868823766708374,9.243803977966309,0.8303391337394714,0
1246390,2024-02-06 10:09:07.479158,-0.6101915836334229,9.8085298538208,1.131845474243164,0
1246466,2024-02-06 10:09:07.554603,0.5144752264022827,8.801115989685059,1.012200117111206,0
1246543,2024-02-06 10:09:07.629180,1.0672370195388794,9.437629699707031,0.3517574965953827,0
1246620,2024-02-06 10:09:07.704434,1.8712540864944458,10.33975601196289,0.5001177787780762,0
1246696,2024-02-06 10:09:07.779190,1.9861136674880981,10.698692321777344,0.7011220455169678,0
1246773,2024-02-06 10:09:07.854571,1.4524952173233032,9.387378692626953,0.569512128829956,0
1246849,2024-02-06 10:09:07.929587,1.5984625816345215,9.514202117919922,0.5719050168991089,0
1246925,2024-02-06 10:09:08.004375,1.8257888555526733,9.629061698913574,0.588655412197113,0
1247002,2024-02-06 10:09:08.094582,1.897576093673706,9.794173240661621,1.1964540481567383,0
1247079,2024-02-06 10:09:08.169632,1.876039981842041,8.882474899291992,0.8997334241867065,0
1247155,2024-02-06 10:09:08.244604,1.9908995628356934,9.803744316101074,0.8734114766120911,0
1247232,2024-02-06 10:09:08.319367,1.777930736541748,9.442415237426758,1.043307900428772,0
1247308,2024-02-06 10:09:08.394593,1.6152129173278809,9.260554313659668,1.0289504528045654,0
1247385,2024-02-06 10:09:08.469596,1.2108114957809448,9.822887420654297,1.0959519147872925,0
1247461,2024-02-06 10:09:08.544564,-0.6125844717025757,10.031070709228516,1.0624512434005737,0
1247538,2024-02-06 10:09:08.618819,-1.5386399030685425,9.449594497680664,0.8997334241867065,0
1247615,2024-02-06 10:09:08.694255,-1.514710783958435,10.186610221862793,0.5001177787780762,0
1247691,2024-02-06 10:09:08.769640,-1.3998512029647827,9.863567352294922,0.9260554313659668,0
1247767,2024-02-06 10:09:08.859599,-1.4907817840576172,9.39934253692627,0.7226582169532776,0
1247844,2024-02-06 10:09:08.934197,-1.2132043838500977,9.320377349853516,0.9188767075538635,0
1247920,2024-02-06 10:09:09.009046,-0.8518753051757812,9.169623374938965,0.6580497026443481,0
1247997,2024-02-06 10:09:09.084591,-1.485995888710022,8.875295639038086,1.847325086593628,0
1248074,2024-02-06 10:09:09.159409,-1.3687434196472168,9.600347518920898,2.0602939128875732,0
1248150,2024-02-06 10:09:09.234349,-0.8877689242362976,9.899460792541504,2.591519355773926,0
1248226,2024-02-06 10:09:09.309242,-1.4142086505889893,9.48788070678711,1.9215052127838135,0
1248303,2024-02-06 10:09:09.384631,-0.7250511646270752,9.188767433166504,1.9908995628356934,0
1248379,2024-02-06 10:09:09.459593,-0.30868515372276306,9.105015754699707,1.7755378484725952,0
1248456,2024-02-06 10:09:09.534604,0.02632198855280876,10.100464820861816,2.4335875511169434,0
1248533,2024-02-06 10:09:09.624448,0.3924369215965271,9.81810188293457,1.0983448028564453,0
1248609,2024-02-06 10:09:09.699620,0.01914326474070549,9.911425590515137,1.387886643409729,0
1248685,2024-02-06 10:09:09.774437,-0.009571632370352745,9.535738945007324,1.012200117111206,0
1248762,2024-02-06 10:09:09.848848,0.0502510704100132,9.428057670593262,0.7705163955688477,0
1248838,2024-02-06 10:09:09.923820,0.30629223585128784,9.444808006286621,0.8183745741844177,0
1248915,2024-02-06 10:09:09.999545,0.6580497026443481,9.66256332397461,0.9451987147331238,0
1248992,2024-02-06 10:09:10.074405,0.5719050168991089,10.179430961608887,1.1749178171157837,0
1249068,2024-02-06 10:09:10.149501,0.7561589479446411,9.274911880493164,1.0528795719146729,0
1249144,2024-02-06 10:09:10.224396,0.9260554313659668,9.56684684753418,1.0241646766662598,0
1249221,2024-02-06 10:09:10.299308,0.8758043646812439,9.973641395568848,1.1222739219665527,0
1249297,2024-02-06 10:09:10.389301,0.7250511646270752,9.46155834197998,1.1964540481567383,0
1249374,2024-02-06 10:09:10.479242,0.8494823575019836,9.708027839660645,1.3376356363296509,0
1249451,2024-02-06 10:09:10.539436,0.8566610813140869,9.696063995361328,1.4213874340057373,0
1249527,2024-02-06 10:09:10.614081,0.7226582169532776,9.47113037109375,1.4213874340057373,0
1249603,2024-02-06 10:09:10.689555,0.6748000979423523,9.499845504760742,1.7516087293624878,0
1249680,2024-02-06 10:09:10.764585,0.4737958014011383,9.29644775390625,1.4596738815307617,0
1249756,2024-02-06 10:09:10.839617,0.47858160734176636,9.839637756347656,1.3519930839538574,0
1249833,2024-02-06 10:09:10.914514,0.2536482512950897,9.167230606079102,1.139024257659912,0
1249910,2024-02-06 10:09:10.989581,-0.11725249886512756,10.004748344421387,0.7346227765083313,0
1249986,2024-02-06 10:09:11.064307,-0.2823631465435028,10.081321716308594,0.7561589479446411,0
1250062,2024-02-06 10:09:11.154419,-0.25604116916656494,9.143301963806152,0.4714028835296631,0
1250139,2024-02-06 10:09:11.229566,-0.18425391614437103,9.002120018005371,0.37568655610084534,0
1250215,2024-02-06 10:09:11.303818,-0.2010042816400528,9.066728591918945,-0.06460852175951004,0
1250291,2024-02-06 10:09:11.379408,-0.284756064414978,9.186373710632324,0.06221561133861542,0
1250368,2024-02-06 10:09:11.454536,-0.1411815732717514,9.294054985046387,-0.20579010248184204,0
1250445,2024-02-06 10:09:11.529370,-0.5599405169487,9.167230606079102,-0.6867645978927612,0
1250522,2024-02-06 10:09:11.604403,-0.7992312908172607,8.523538589477539,-1.416601538658142,0
1250598,2024-02-06 10:09:11.679604,-0.23689790070056915,8.657541275024414,-2.1320810317993164,0
1250674,2024-02-06 10:09:11.754139,-0.30629223585128784,8.186138153076172,-3.785580635070801,0
1250751,2024-02-06 10:09:11.828997,-0.6293348073959351,7.654912948608398,-3.1586387157440186,1
1250828,2024-02-06 10:09:11.919560,-1.2610626220703125,6.618783950805664,-3.6085054874420166,1
1250904,2024-02-06 10:09:11.994552,-0.5336185097694397,7.202653408050537,-4.03683614730835,1
1250981,2024-02-06 10:09:12.069533,-0.5312256217002869,7.769772529602051,-4.484309673309326,1
1251057,2024-02-06 10:09:12.144569,-2.8834543228149414,8.193317413330078,-4.197160720825195,1
1251133,2024-02-06 10:09:12.219566,0.8111958503723145,8.820259094238281,-4.539346694946289,1
1251210,2024-02-06 10:09:12.294519,-2.895418882369995,10.466580390930176,-2.768594741821289,1
1251287,2024-02-06 10:09:12.369569,-2.768594741821289,10.983448028564453,-3.05574369430542,1
1251363,2024-02-06 10:09:12.444557,-0.521653950214386,8.399106979370117,-3.548682689666748,1
1251440,2024-02-06 10:09:12.519538,1.9119335412979126,9.463951110839844,-16.984861373901367,1
1251516,2024-02-06 10:09:12.594486,-9.164837837219238,4.503453254699707,-7.784130096435547,1
1251592,2024-02-06 10:09:12.684535,-2.079437017440796,1.4979604482650757,-6.8891825675964355,1
1251669,2024-02-06 10:09:12.758769,-1.5960696935653687,2.4216229915618896,-6.176095962524414,1
1251746,2024-02-06 10:09:12.834508,0.01914326474070549,-2.9743847846984863,-12.227760314941406,1
1251822,2024-02-06 10:09:12.909519,-1.4979604482650757,1.7635732889175415,-15.484508514404297,1
1251899,2024-02-06 10:09:12.984477,-0.1603248417377472,0.6054057478904724,-10.385221481323242,1
1251975,2024-02-06 10:09:13.059521,-0.49054616689682007,-0.8829830884933472,-11.174880981445312,1
1252051,2024-02-06 10:09:13.134538,0.8925547003746033,1.0241646766662598,-12.002826690673828,1
1252128,2024-02-06 10:09:13.209969,-3.5582542419433594,0.27997025847435,-7.958812236785889,1
1252205,2024-02-06 10:09:13.284234,-1.2323477268218994,-0.44747382402420044,-7.709949970245361,1
1252281,2024-02-06 10:09:13.358805,2.9815635681152344,2.072258472442627,-11.59842586517334,1
1252358,2024-02-06 10:09:13.449585,-1.0385221242904663,0.4546525478363037,-10.052606582641602,1
1252434,2024-02-06 10:09:13.524443,-1.0074143409729004,0.4450809061527252,-9.911425590515137,1
1252510,2024-02-06 10:09:13.599545,-0.8877689242362976,1.6367491483688354,-9.784601211547852,1
1252587,2024-02-06 10:09:13.674375,-0.5742979645729065,1.7157150506973267,-9.786993980407715,1
1252664,2024-02-06 10:09:13.749553,-0.8662327527999878,2.184725046157837,-9.877924919128418,1
1252740,2024-02-06 10:09:13.824361,-0.6436922550201416,2.670485496520996,-9.849209785461426,1
1252817,2024-02-06 10:09:13.899326,-0.8973405361175537,2.297191858291626,-10.145930290222168,1
1252893,2024-02-06 10:09:13.974316,0.5790837407112122,2.2876200675964355,-10.26796817779541,1
1252969,2024-02-06 10:09:14.049338,0.45943835377693176,2.290013074874878,-9.839637756347656,1
1253046,2024-02-06 10:09:14.123724,1.021771788597107,3.225640058517456,-8.839402198791504,1
1253123,2024-02-06 10:09:14.213712,0.5934411883354187,3.8525819778442383,-9.46155834197998,1
1253199,2024-02-06 10:09:14.288781,2.278048515319824,6.417779445648193,-9.849209785461426,1
1253276,2024-02-06 10:09:14.363829,1.4453164339065552,6.77910852432251,-9.064335823059082,1
1253352,2024-02-06 10:09:14.454008,0.8758043646812439,8.061707496643066,-8.303391456604004,1
1253428,2024-02-06 10:09:14.513972,2.4718739986419678,7.879846572875977,-6.810216426849365,1
1253505,2024-02-06 10:09:14.589225,4.623098373413086,6.850895881652832,-6.82218074798584,1
1253582,2024-02-06 10:09:14.663766,2.129688262939453,7.106936931610107,-4.886318206787109,1
1253658,2024-02-06 10:09:14.739226,1.4883887767791748,6.549389362335205,-4.075122356414795,1
1253735,2024-02-06 10:09:14.813920,1.416601538658142,8.746079444885254,-3.3955366611480713,1
1253811,2024-02-06 10:09:14.903929,2.376157760620117,9.12415885925293,-3.3476784229278564,1
1253887,2024-02-06 10:09:14.963727,1.9550058841705322,8.652755737304688,-3.4170727729797363,1
1253964,2024-02-06 10:09:15.054556,0.21775463223457336,9.585989952087402,-2.28283429145813,1
1254041,2024-02-06 10:09:15.129572,-0.46900999546051025,9.782208442687988,-1.876039981842041,1
1254118,2024-02-06 10:09:15.204483,-0.22971917688846588,9.002120018005371,-1.148595929145813,1
1254194,2024-02-06 10:09:15.279345,0.6149773597717285,8.698221206665039,-1.3208853006362915,1
1254270,2024-02-06 10:09:15.354532,0.4139730930328369,9.29644775390625,-0.8088029623031616,1
1254347,2024-02-06 10:09:15.429542,0.009571632370352745,9.303627014160156,-0.4020085632801056,1
1254423,2024-02-06 10:09:15.504435,-0.2225404530763626,9.332341194152832,-1.6319633722305298,1
1254500,2024-02-06 10:09:15.579400,-0.18903973698616028,9.444808006286621,-0.9475916028022766,1
1254577,2024-02-06 10:09:15.669506,-1.148595929145813,9.602740287780762,-1.3974583148956299,1
1254653,2024-02-06 10:09:15.729178,-0.6724071502685547,9.593168258666992,-2.0602939128875732,1
1254729,2024-02-06 10:09:15.819524,-0.8901618123054504,11.134201049804688,-2.2947988510131836,1
1254806,2024-02-06 10:09:15.894510,-2.275655508041382,10.45222282409668,-2.354621648788452,0
1254882,2024-02-06 10:09:15.969502,-2.921740770339966,10.90208911895752,-3.6515777111053467,0
1254958,2024-02-06 10:09:16.044379,-2.720736503601074,12.033934593200684,-3.366821765899658,0
1255035,2024-02-06 10:09:16.119525,-2.2852272987365723,12.065042495727539,-3.2495691776275635,0
1255112,2024-02-06 10:09:16.194490,-2.4551236629486084,11.189238548278809,-2.7781662940979004,0
1255188,2024-02-06 10:09:16.269543,-2.093794584274292,10.124394416809082,-3.0030996799468994,0
1255265,2024-02-06 10:09:16.344469,-2.242154836654663,7.82959508895874,-3.4051082134246826,0
1255341,2024-02-06 10:09:16.434554,-2.4192299842834473,7.2552971839904785,-3.1586387157440186,0
1255417,2024-02-06 10:09:16.494504,-2.0076498985290527,7.236154079437256,-2.4694812297821045,0
1255494,2024-02-06 10:09:16.584518,-1.9621846675872803,7.066257476806641,-2.5173392295837402,0
1255571,2024-02-06 10:09:16.659484,-1.9382555484771729,7.044721603393555,-1.928683876991272,0
1255647,2024-02-06 10:09:16.734520,-2.431194543838501,8.291426658630371,-1.1964540481567383,0
1255724,2024-02-06 10:09:16.809487,-2.931312322616577,8.638398170471191,-1.0528795719146729,0
1255800,2024-02-06 10:09:16.884489,-2.907383441925049,9.779815673828125,-0.7800880670547485,0
1255876,2024-02-06 10:09:16.959488,-2.6896286010742188,9.73195743560791,-0.0909305065870285,0
1255953,2024-02-06 10:09:17.034491,-2.3641932010650635,9.143301963806152,0.27518442273139954,0
1256030,2024-02-06 10:09:17.109485,-2.0555081367492676,9.325162887573242,0.7202653288841248,0
1256106,2024-02-06 10:09:17.214384,-2.172760486602783,9.526166915893555,1.3472073078155518,0
1256183,2024-02-06 10:09:17.304399,-2.1679747104644775,10.124394416809082,1.8425391912460327,0
1256259,2024-02-06 10:09:17.394491,-1.1892752647399902,8.719757080078125,0.8758043646812439,0
1256335,2024-02-06 10:09:17.423853,-0.45943835377693176,9.303627014160156,0.7130866050720215,0
1256412,2024-02-06 10:09:17.499482,0.31586387753486633,8.877689361572266,0.5958341360092163,0
1256489,2024-02-06 10:09:17.574337,0.7633376717567444,9.526166915893555,1.1820966005325317,0
1256565,2024-02-06 10:09:17.649512,-0.1316099464893341,9.796566009521484,1.3639576435089111,0
1256642,2024-02-06 10:09:17.723796,0.01914326474070549,9.255768775939941,1.6846072673797607,0
1256718,2024-02-06 10:09:17.799503,0.12921704351902008,9.308412551879883,0.9978426694869995,0
1256794,2024-02-06 10:09:17.874348,0.009571632370352745,9.81092357635498,1.8281817436218262,0
1256871,2024-02-06 10:09:17.964488,-0.2105759084224701,9.885103225708008,1.619998812675476,0
1256948,2024-02-06 10:09:18.024351,-0.7944455146789551,10.516831398010254,2.3163349628448486,0
1257024,2024-02-06 10:09:18.114516,-1.139024257659912,9.887495994567871,0.5934411883354187,0
1257101,2024-02-06 10:09:18.189452,-0.5288326740264893,8.006670951843262,0.07896596938371658,0
1257177,2024-02-06 10:09:18.264505,-1.1294525861740112,8.84658145904541,0.181861013174057,0
1257253,2024-02-06 10:09:18.339484,-1.5673547983169556,10.880553245544434,1.5553902387619019,0
1257330,2024-02-06 10:09:18.414441,-1.6965718269348145,9.578810691833496,1.4477094411849976,0
1257407,2024-02-06 10:09:18.489466,-1.524282455444336,9.100229263305664,1.5362470149993896,0
1257483,2024-02-06 10:09:18.564476,-1.6319633722305298,9.205517768859863,2.242154836654663,0
1257560,2024-02-06 10:09:18.639472,-1.643927812576294,9.437629699707031,2.249333620071411,0
1257636,2024-02-06 10:09:18.729485,-1.6367491483688354,9.562060356140137,3.2304258346557617,0
1257713,2024-02-06 10:09:18.789470,-1.0145930051803589,10.99780559539795,2.7303080558776855,0
1257790,2024-02-06 10:09:18.879369,0.20339718461036682,8.458930015563965,1.2873845100402832,0
1257866,2024-02-06 10:09:18.954487,0.9547703266143799,8.210067749023438,0.825553297996521,0
1257943,2024-02-06 10:09:19.029480,1.1749178171157837,10.535974502563477,1.9334697723388672,0
1258019,2024-02-06 10:09:19.104505,0.6748000979423523,9.174409866333008,2.1392598152160645,0
1258095,2024-02-06 10:09:19.179507,0.619763195514679,8.604897499084473,1.964577555656433,0
1258172,2024-02-06 10:09:19.254532,0.30868515372276306,9.396949768066406,2.8284173011779785,0
1258249,2024-02-06 10:09:19.329466,0.27997025847435,9.207910537719727,2.6513421535491943,0
1258325,2024-02-06 10:09:19.404448,0.07178724557161331,9.229446411132812,2.5556259155273438,0
1258402,2024-02-06 10:09:19.494156,0.3302213251590729,9.851602554321289,3.3572499752044678,0
1258478,2024-02-06 10:09:19.554505,-0.43790218234062195,11.41417121887207,2.3976938724517822,0
1258554,2024-02-06 10:09:19.644267,-1.1653462648391724,9.341913223266602,0.9332341551780701,0
1258631,2024-02-06 10:09:19.719188,-2.045936346054077,8.640790939331055,0.49772489070892334,0
1258708,2024-02-06 10:09:19.794360,-1.9789350032806396,9.820494651794434,0.4809745252132416,0
1258784,2024-02-06 10:09:19.868720,-1.5386399030685425,9.629061698913574,1.3376356363296509,0
1258861,2024-02-06 10:09:19.943733,-1.581712245941162,9.2725191116333,1.1581674814224243,0
1258937,2024-02-06 10:09:20.019128,-1.3902796506881714,9.380199432373047,1.770751953125,0
1259013,2024-02-06 10:09:20.094513,-0.9188767075538635,8.83700942993164,2.0124356746673584,0
1259090,2024-02-06 10:09:20.169274,-1.170132040977478,9.310805320739746,2.6321988105773926,0
1259166,2024-02-06 10:09:20.258923,-1.021771788597107,9.234231948852539,2.943276882171631,0
1259243,2024-02-06 10:09:20.319479,-0.4809745252132416,11.811394691467285,3.182567834854126,0
1259320,2024-02-06 10:09:20.439073,-0.6771929860115051,10.327791213989258,2.1033661365509033,0
1259396,2024-02-06 10:09:20.529084,-0.37807947397232056,7.915740013122559,1.3926725387573242,0
1259472,2024-02-06 10:09:20.558727,0.44268798828125,9.38498592376709,0.8327320218086243,0
1259549,2024-02-06 10:09:20.634467,-0.1005021408200264,10.318220138549805,2.177546262741089,0
1259625,2024-02-06 10:09:20.709132,-0.19861137866973877,8.944690704345703,1.4118157625198364,0
1259702,2024-02-06 10:09:20.783895,0.047858163714408875,9.822887420654297,1.3519930839538574,0
1259779,2024-02-06 10:09:20.859461,-0.0023929080925881863,9.408914566040039,2.1177237033843994,0
1259855,2024-02-06 10:09:20.934530,-0.1698964685201645,9.310805320739746,2.390515089035034,0
1259931,2024-02-06 10:09:21.024250,-0.11964540183544159,8.971012115478516,2.61305570602417,0
1260008,2024-02-06 10:09:21.099467,-0.08375178277492523,9.447200775146484,3.105994701385498,0
1260084,2024-02-06 10:09:21.174264,-0.44268798828125,11.17248821258545,2.7494513988494873,0
1260161,2024-02-06 10:09:21.249541,-0.8423036336898804,8.992548942565918,1.7922881841659546,0
1260238,2024-02-06 10:09:21.324388,-1.4094228744506836,8.858545303344727,0.9786993861198425,0
1260314,2024-02-06 10:09:21.399350,-1.9621846675872803,9.633848190307617,0.28714898228645325,0
1260390,2024-02-06 10:09:21.474284,-2.038757801055908,10.064571380615234,1.0337363481521606,0
1260467,2024-02-06 10:09:21.549472,-1.8329676389694214,9.612311363220215,1.6630711555480957,0
1260543,2024-02-06 10:09:21.624333,-2.0124356746673584,9.20073127746582,1.4716384410858154,0
1260620,2024-02-06 10:09:21.699448,-1.742037057876587,9.241411209106445,1.8353605270385742,0
1260697,2024-02-06 10:09:21.788689,-1.4836030006408691,9.298840522766113,1.9502201080322266,0
1260773,2024-02-06 10:09:21.863717,-1.404637098312378,9.085871696472168,2.5340895652770996,0
1260850,2024-02-06 10:09:21.939427,-1.3519930839538574,9.248589515686035,2.7925238609313965,0
1260926,2024-02-06 10:09:22.014396,-1.643927812576294,8.624040603637695,2.1799392700195312,0
1261002,2024-02-06 10:09:22.089492,-1.7970739603042603,8.298604965209961,2.5819478034973145,0
1261079,2024-02-06 10:09:22.164258,-1.7946810722351074,8.171781539916992,1.5099250078201294,0
1261156,2024-02-06 10:09:22.239457,-0.7896596789360046,6.5733184814453125,1.0648441314697266,0
1261232,2024-02-06 10:09:22.314443,-0.2727915346622467,6.013378143310547,-1.141417145729065,0
1261308,2024-02-06 10:09:22.389450,0.24886244535446167,7.848738670349121,-1.672642707824707,0
1261385,2024-02-06 10:09:22.464452,1.4453164339065552,8.927940368652344,-2.9049904346466064,0
1261461,2024-02-06 10:09:22.554423,-0.3350071310997009,6.908325672149658,-4.170838832855225,0
1261538,2024-02-06 10:09:22.629450,-0.26561281085014343,7.877453327178955,-5.97269868850708,0
1261615,2024-02-06 10:09:22.704425,0.1316099464893341,8.061707496643066,-9.2725191116333,0
1261691,2024-02-06 10:09:22.778957,-1.5888910293579102,11.277775764465332,-9.729564666748047,1
1261768,2024-02-06 10:09:22.854460,-0.7848738431930542,5.570690155029297,-8.722149848937988,1
1261844,2024-02-06 10:09:22.929442,3.2567479610443115,5.336184978485107,-5.192610740661621,1
1261920,2024-02-06 10:09:23.004453,-4.5010600090026855,-1.1892752647399902,-14.355055809020996,1
1261997,2024-02-06 10:09:23.078860,2.1177237033843994,-0.2512553632259369,-16.527816772460938,1
1262074,2024-02-06 10:09:23.154418,-4.264162063598633,0.36611494421958923,-9.19355297088623,1
1262150,2024-02-06 10:09:23.229282,-1.7516087293624878,0.5479759573936462,-8.305784225463867,1
1262227,2024-02-06 10:09:23.304356,-4.888711452484131,4.666170597076416,-13.314140319824219,1
1262303,2024-02-06 10:09:23.393697,-1.8066456317901611,2.9695990085601807,-12.919310569763184,1
1262379,2024-02-06 10:09:23.469104,-1.5697476863861084,1.356778860092163,-8.262711524963379,1
1262456,2024-02-06 10:09:23.544455,-1.3400285243988037,2.3713719844818115,-8.358428001403809,1
1262533,2024-02-06 10:09:23.618748,-0.6077986359596252,4.850424766540527,-8.573789596557617,1
1262609,2024-02-06 10:09:23.694423,-0.5455830693244934,3.6443989276885986,-12.47422981262207,1
1262686,2024-02-06 10:09:23.769236,-2.663306713104248,5.039464473724365,-14.201909065246582,1
1262762,2024-02-06 10:09:23.844441,-3.3763933181762695,3.9889779090881348,-9.150480270385742,1
1262838,2024-02-06 10:09:23.919437,-1.7898952960968018,4.728386402130127,-11.947790145874023,1
1262915,2024-02-06 10:09:23.994445,-1.3113136291503906,2.1823322772979736,-10.275147438049316,1
1262992,2024-02-06 10:09:24.084462,-1.0576653480529785,0.8901618123054504,-10.265575408935547,1
1263068,2024-02-06 10:09:24.159422,-0.5360113978385925,0.648478090763092,-10.07892894744873,1
1263145,2024-02-06 10:09:24.234436,-0.49772489070892334,0.31825676560401917,-10.122001647949219,1
1263221,2024-02-06 10:09:24.308726,-0.39961564540863037,0.11246667802333832,-10.129179954528809,1
1263297,2024-02-06 10:09:24.384443,-0.3709007501602173,0.08853759616613388,-10.098072052001953,1
1263374,2024-02-06 10:09:24.459399,-0.2823631465435028,0.05742979422211647,-10.162680625915527,1
1263451,2024-02-06 10:09:24.534482,-0.25604116916656494,0.014357448555529118,-10.081321716308594,1
1263527,2024-02-06 10:09:24.608862,-0.21536172926425934,-0.0023929080925881863,-10.160287857055664,1
1263604,2024-02-06 10:09:24.684458,-0.20818300545215607,-0.023929081857204437,-10.332576751708984,1
1263680,2024-02-06 10:09:24.759430,0.2416837215423584,2.4431591033935547,-1.8186101913452148,1
1263756,2024-02-06 10:09:24.848696,0.3015064299106598,3.9961564540863037,-10.311040878295898,1
1263833,2024-02-06 10:09:24.923722,-1.2514909505844116,3.407501220703125,-9.798958778381348,1
1263910,2024-02-06 10:09:24.999505,-0.5790837407112122,3.9817991256713867,-9.9832124710083,1
1263987,2024-02-06 10:09:25.074243,-0.8805902004241943,4.008121013641357,-9.408914566040039,1
1264063,2024-02-06 10:09:25.149403,-1.0026284456253052,4.130159378051758,-8.860939025878906,1
1264139,2024-02-06 10:09:25.224336,-0.4522596299648285,4.029657363891602,-9.040407180786133,1
1264216,2024-02-06 10:09:25.299402,-0.22493335604667664,4.481916904449463,-9.222268104553223,1
1264292,2024-02-06 10:09:25.374262,-1.945434331893921,4.824102878570557,-10.18182373046875,1
1264369,2024-02-06 10:09:25.449437,-0.4331163763999939,3.835831642150879,-10.63408374786377,1
1264446,2024-02-06 10:09:25.524272,-2.1966896057128906,4.5919904708862305,-8.770008087158203,1
1264522,2024-02-06 10:09:25.614523,-0.9858781099319458,3.5103962421417236,-8.425429344177246,1
1264598,2024-02-06 10:09:25.688838,-0.7776951193809509,4.213911056518555,-8.217246055603027,1
1264675,2024-02-06 10:09:25.763797,-1.2347406148910522,3.6515777111053467,-7.408443450927734,1
1264751,2024-02-06 10:09:25.839385,-1.6056413650512695,3.570218801498413,-7.212224960327148,1
1264828,2024-02-06 10:09:25.914359,-0.4044014811515808,3.378786325454712,-6.602033615112305,1
1264905,2024-02-06 10:09:25.989403,-0.07896596938371658,3.084458589553833,-6.793466091156006,1
1264981,2024-02-06 10:09:26.064395,-1.296956181526184,3.0940301418304443,-11.610389709472656,1
1265057,2024-02-06 10:09:26.139192,1.306527853012085,3.625255823135376,-10.842267036437988,1
1265134,2024-02-06 10:09:26.214253,0.8566610813140869,3.7472941875457764,-9.8085298538208,1
1265210,2024-02-06 10:09:26.289843,2.0076498985290527,5.168681621551514,-9.956890106201172,1
1265287,2024-02-06 10:09:26.379472,-0.844696581363678,5.912876129150391,-8.485252380371094,0
1265364,2024-02-06 10:09:26.454240,-2.577162027359009,6.563746929168701,-7.82959508895874,0
1265440,2024-02-06 10:09:26.529194,1.246705174446106,7.975562572479248,-7.88223934173584,0
1265516,2024-02-06 10:09:26.604423,2.3378713130950928,8.415857315063477,-5.860231876373291,0
1265593,2024-02-06 10:09:26.679374,-1.2323477268218994,8.162209510803223,-5.943983554840088,0
1265669,2024-02-06 10:09:26.754327,1.2443121671676636,10.275147438049316,-6.022949695587158,0
1265746,2024-02-06 10:09:26.829387,0.6293348073959351,8.68864917755127,-5.180645942687988,0
1265823,2024-02-06 10:09:26.904303,0.24646952748298645,7.166759967803955,-3.3069989681243896,0
1265899,2024-02-06 10:09:26.979402,-0.8111958503723145,6.972934246063232,-1.3854937553405762,0
1265975,2024-02-06 10:09:27.054409,-2.1105449199676514,7.992312908172607,-0.3804723918437958,0
1266052,2024-02-06 10:09:27.144394,-1.8784328699111938,9.66256332397461,0.9547703266143799,0
1266128,2024-02-06 10:09:27.219432,-2.2589051723480225,8.927940368652344,0.24646952748298645,0
1266205,2024-02-06 10:09:27.294388,-3.3476784229278564,9.863567352294922,-1.2132043838500977,0
1266282,2024-02-06 10:09:27.369394,-4.139730930328369,12.797272682189941,0.09571632742881775,0
1266358,2024-02-06 10:09:27.444385,-3.09881591796875,12.136829376220703,0.363722026348114,0
1266435,2024-02-06 10:09:27.519357,-3.0964231491088867,12.452693939208984,0.6054057478904724,0
1266511,2024-02-06 10:09:27.594385,-2.703986167907715,11.16291618347168,0.08135887235403061,0
1266587,2024-02-06 10:09:27.669366,-1.9813278913497925,7.511338710784912,-1.5266753435134888,0
1266664,2024-02-06 10:09:27.744389,-2.4335875511169434,7.0088276863098145,-2.172760486602783,0
1266741,2024-02-06 10:09:27.818703,-2.136866807937622,7.705163955688477,-1.1055235862731934,0
1266817,2024-02-06 10:09:27.909358,-1.5290682315826416,7.0854010581970215,-0.7418015003204346,0
1266894,2024-02-06 10:09:27.984370,-1.3089207410812378,7.719521522521973,-0.23689790070056915,0
1266970,2024-02-06 10:09:28.059393,-1.7444299459457397,8.494823455810547,0.521653950214386,0
1267046,2024-02-06 10:09:28.134369,-1.6295703649520874,9.049978256225586,0.9475916028022766,0
1267123,2024-02-06 10:09:28.209369,-1.4453164339065552,9.088264465332031,1.5960696935653687,0
1267200,2024-02-06 10:09:28.284398,-1.6654640436172485,9.576417922973633,2.1033661365509033,0
1267276,2024-02-06 10:09:28.359376,-1.356778860092163,11.87360954284668,2.141652822494507,0
1267353,2024-02-06 10:09:28.434393,-0.181861013174057,10.63408374786377,1.239526391029358,0
1267429,2024-02-06 10:09:28.509395,0.1914326548576355,8.755650520324707,0.02632198855280876,0
1267505,2024-02-06 10:09:28.584387,0.40918728709220886,9.394556999206543,0.2919347882270813,0
1267582,2024-02-06 10:09:28.674258,0.3326142132282257,10.535974502563477,1.5051392316818237,0
1267659,2024-02-06 10:09:28.749366,-0.2536482512950897,8.578575134277344,2.1177237033843994,0
1267735,2024-02-06 10:09:28.824207,-0.4235447347164154,8.51636028289795,2.010042905807495,0
1267812,2024-02-06 10:09:28.899376,-0.32543548941612244,8.880082130432129,2.3713719844818115,0
1267888,2024-02-06 10:09:28.974226,-0.29672059416770935,9.380199432373047,2.845167636871338,0
1267964,2024-02-06 10:09:29.049391,0.05264397710561752,9.061943054199219,2.924133777618408,0
1268041,2024-02-06 10:09:29.124253,-0.33740004897117615,9.538131713867188,3.4242515563964844,0
1268118,2024-02-06 10:09:29.199357,-0.6317277550697327,12.629769325256348,1.739644169807434,0
1268194,2024-02-06 10:09:29.274245,-1.7827165126800537,8.102386474609375,0.5072965025901794,0
1268271,2024-02-06 10:09:29.349369,-1.847325086593628,8.844188690185547,0.023929081857204437,0
1268347,2024-02-06 10:09:29.439370,-1.799466848373413,10.143537521362305,0.8279461860656738,0
1268423,2024-02-06 10:09:29.514419,-2.184725046157837,9.499845504760742,2.5556259155273438,0
1268500,2024-02-06 10:09:29.589351,-1.9932924509048462,8.978191375732422,1.6080342531204224,0
1268577,2024-02-06 10:09:29.664369,-1.7324655055999756,8.937511444091797,1.9382555484771729,0
1268654,2024-02-06 10:09:29.739357,-1.514710783958435,9.069121360778809,2.158403158187866,0
1268730,2024-02-06 10:09:29.814111,-1.560176134109497,9.195945739746094,3.161031484603882,0
1268806,2024-02-06 10:09:29.888654,-1.7635732889175415,9.607525825500488,3.6778998374938965,0
1268883,2024-02-06 10:09:29.964119,-1.4883887767791748,10.715442657470703,3.1490671634674072,0
1268959,2024-02-06 10:09:30.039346,-0.2512553632259369,8.580968856811523,1.5553902387619019,0
1269036,2024-02-06 10:09:30.114351,0.5240468978881836,8.600111961364746,0.9547703266143799,0
1269113,2024-02-06 10:09:30.204368,0.27997025847435,10.440258026123047,2.7303080558776855,0
1269189,2024-02-06 10:09:30.279373,0.16750356554985046,8.982976913452148,2.565197467803955,0
1269265,2024-02-06 10:09:30.353762,0.19861137866973877,9.198338508605957,2.565197467803955,0
1269342,2024-02-06 10:09:30.428848,0.2105759084224701,9.179195404052734,2.816452741622925,0
1269418,2024-02-06 10:09:30.504202,0.047858163714408875,8.975798606872559,3.3189635276794434,0
1269495,2024-02-06 10:09:30.579356,0.0023929080925881863,8.521145820617676,3.5606472492218018,0
1269572,2024-02-06 10:09:30.654215,0.10289505124092102,9.444808006286621,3.843010425567627,0
1269648,2024-02-06 10:09:30.729335,-0.648478090763092,11.497923851013184,3.864546537399292,0
1269724,2024-02-06 10:09:30.804243,-1.1246668100357056,9.64341926574707,1.9693633317947388,0
1269801,2024-02-06 10:09:30.879392,-1.9837207794189453,7.590304374694824,0.5336185097694397,0
1269877,2024-02-06 10:09:30.969352,-1.7061434984207153,10.418722152709961,1.1438100337982178,0
1269954,2024-02-06 10:09:31.044256,-0.9380199909210205,9.026049613952637,2.373764753341675,0
1270031,2024-02-06 10:09:31.119389,-1.3519930839538574,8.583361625671387,2.0004711151123047,0
1270107,2024-02-06 10:09:31.194335,-1.3256710767745972,8.540288925170898,2.3067634105682373,0
1270183,2024-02-06 10:09:31.269383,-1.1988469362258911,8.676684379577637,2.072258472442627,0
1270260,2024-02-06 10:09:31.344370,-0.5455830693244934,9.346698760986328,1.9382555484771729,0
1270336,2024-02-06 10:09:31.419353,-0.08614469319581985,8.908797264099121,1.2514909505844116,0
1270413,2024-02-06 10:09:31.493876,-0.12443122267723083,9.026049613952637,-0.2105759084224701,0
1270490,2024-02-06 10:09:31.569378,-0.09810923039913177,8.882474899291992,-0.6389064788818359,0
1270566,2024-02-06 10:09:31.643774,0.18425391614437103,8.93990421295166,-1.9406484365463257,0
1270642,2024-02-06 10:09:31.734327,0.4642241597175598,9.490273475646973,-2.467088222503662,0
1270719,2024-02-06 10:09:31.808811,0.8566610813140869,9.069121360778809,-2.522125244140625,0
1270795,2024-02-06 10:09:31.884358,0.8686256408691406,8.647970199584961,-3.007885456085205,0
1270872,2024-02-06 10:09:31.959351,0.5958341360092163,8.68147087097168,-3.5582542419433594,0
1270949,2024-02-06 10:09:32.034353,0.31586387753486633,9.157659530639648,-3.5534684658050537,0
1271025,2024-02-06 10:09:32.109362,0.5455830693244934,8.786758422851562,-5.116037368774414,0
1271102,2024-02-06 10:09:32.184163,0.24407662451267242,8.858545303344727,-5.431901454925537,0
1271178,2024-02-06 10:09:32.259317,-0.5814766883850098,9.174409866333008,-5.7573370933532715,0
1271254,2024-02-06 10:09:32.333989,-0.3421858549118042,7.951633453369141,-5.618548393249512,0
1271331,2024-02-06 10:09:32.408760,-0.7178724408149719,6.81500244140625,-5.436686992645264,1
1271408,2024-02-06 10:09:32.544100,-0.6819788217544556,6.568532943725586,-6.070807933807373,1
1271484,2024-02-06 10:09:32.573788,-0.6748000979423523,5.781265735626221,-5.963127136230469,1
1271561,2024-02-06 10:09:32.648919,-1.9861136674880981,5.606583595275879,-6.451280117034912,1
1271637,2024-02-06 10:09:32.724255,-0.03110780566930771,6.274205207824707,-4.481916904449463,1
1271713,2024-02-06 10:09:32.799274,5.278755187988281,5.273969650268555,-14.68766975402832,1
1271790,2024-02-06 10:09:32.874152,-11.663034439086914,6.300527095794678,-13.09877872467041,1
1271867,2024-02-06 10:09:32.949352,-2.3282995223999023,2.500588893890381,-11.000198364257812,1
1271943,2024-02-06 10:09:33.024172,-1.395065426826477,3.273498296737671,-11.158130645751953,1
1272020,2024-02-06 10:09:33.098738,-1.9550058841705322,3.1012089252471924,-10.004748344421387,1
1272096,2024-02-06 10:09:33.189347,-2.2947988510131836,2.7518444061279297,-8.243568420410156,1
1272172,2024-02-06 10:09:33.249261,-3.653970718383789,4.568061351776123,-10.35650634765625,1
1272249,2024-02-06 10:09:33.339297,-4.649420261383057,3.668328046798706,-6.300527095794678,1
1272326,2024-02-06 10:09:33.414333,-1.5266753435134888,5.905697345733643,-11.593639373779297,1
1272402,2024-02-06 10:09:33.503602,-5.273969650268555,4.642241477966309,-9.741528511047363,1
1272479,2024-02-06 10:09:33.563663,-3.019850015640259,5.010749340057373,-8.344070434570312,1
1272555,2024-02-06 10:09:33.639301,-2.816452741622925,4.615919589996338,-8.652755737304688,1
1272631,2024-02-06 10:09:33.729300,-2.7781662940979004,4.168446063995361,-8.87051010131836,1
1272708,2024-02-06 10:09:33.878790,-2.754237174987793,4.524989128112793,-9.241411209106445,1
1272785,2024-02-06 10:09:33.908794,-2.6465563774108887,4.785816192626953,-9.126551628112793,1
1272861,2024-02-06 10:09:33.938936,-2.4718739986419678,4.694885730743408,-8.60250473022461,1
1272938,2024-02-06 10:09:34.074210,-2.3929080963134766,3.8454031944274902,-8.691041946411133,1
1273014,2024-02-06 10:09:34.119295,-1.6702498197555542,4.64463472366333,-7.958812236785889,1
1273090,2024-02-06 10:09:34.179347,-1.9238981008529663,4.560883045196533,-7.824809551239014,1
1273167,2024-02-06 10:09:34.254313,-1.966970443725586,4.467559337615967,-7.910953998565674,1
1273244,2024-02-06 10:09:34.344303,-1.6487137079238892,3.8525819778442383,-8.291426658630371,1
1273320,2024-02-06 10:09:34.418637,-1.8066456317901611,4.158874034881592,-9.009299278259277,1
1273397,2024-02-06 10:09:34.479441,-2.5197322368621826,4.840853214263916,-10.342148780822754,1
1273473,2024-02-06 10:09:34.554164,-1.4070299863815308,1.4692455530166626,-11.119843482971191,1
1273550,2024-02-06 10:09:34.629310,-0.8542681932449341,0.34697166085243225,-10.299076080322266,1
1273626,2024-02-06 10:09:34.704168,-0.3230426013469696,-0.1316099464893341,-10.409150123596191,1
1273703,2024-02-06 10:09:34.778631,-0.2416837215423584,-0.08135887235403061,-10.648441314697266,1
1273780,2024-02-06 10:09:34.868590,1.4668526649475098,16.17366600036621,-19.928138732910156,1
1273856,2024-02-06 10:09:34.943635,0.2536482512950897,5.795623302459717,-7.887024879455566,1
1273932,2024-02-06 10:09:35.019351,-0.24407662451267242,4.108623027801514,-9.116979598999023,1
1274009,2024-02-06 10:09:35.094299,-0.44986671209335327,5.1184306144714355,-9.239018440246582,1
1274085,2024-02-06 10:09:35.169335,-0.9547703266143799,5.4773664474487305,-9.231839179992676,1
1274162,2024-02-06 10:09:35.244301,-0.009571632370352745,5.324220657348633,-8.549860954284668,1
1274239,2024-02-06 10:09:35.319325,0.3110780417919159,5.510867118835449,-8.028206825256348,1
1274315,2024-02-06 10:09:35.394268,0.20579010248184204,5.3649001121521,-8.652755737304688,1
1274391,2024-02-06 10:09:35.484314,-0.983485221862793,5.388829231262207,-9.186373710632324,1
1274468,2024-02-06 10:09:35.544096,-0.2895418703556061,4.979641914367676,-8.537896156311035,1
1274544,2024-02-06 10:09:35.634255,-0.3230426013469696,5.45104455947876,-8.530716896057129,1
1274621,2024-02-06 10:09:35.709291,-0.3804723918437958,4.764279842376709,-7.841559886932373,1
1274698,2024-02-06 10:09:35.784339,0.23450499773025513,3.9794061183929443,-6.819787979125977,1
1274774,2024-02-06 10:09:35.859373,0.9404128789901733,5.692728519439697,-7.78652286529541,1
1274850,2024-02-06 10:09:35.934097,0.3350071310997009,5.0418572425842285,-8.425429344177246,1
1274927,2024-02-06 10:09:36.009183,-0.1698964685201645,4.785816192626953,-9.0284423828125,1
1275003,2024-02-06 10:09:36.084291,-0.26800569891929626,4.374236106872559,-9.248589515686035,1
1275080,2024-02-06 10:09:36.159291,-0.2225404530763626,3.9459054470062256,-9.605133056640625,1
1275157,2024-02-06 10:09:36.264303,0.6436922550201416,3.4122869968414307,-9.526166915893555,1
1275233,2024-02-06 10:09:36.324217,-0.3948298394680023,4.300055980682373,-9.29644775390625,1
1275309,2024-02-06 10:09:36.398819,-0.3924369215965271,4.099051475524902,-9.40173625946045,1
1275386,2024-02-06 10:09:36.474121,-0.8997334241867065,4.534560680389404,-8.860939025878906,1
1275462,2024-02-06 10:09:36.549343,-0.1914326548576355,3.814295530319214,-8.743685722351074,0
1275539,2024-02-06 10:09:36.639264,-0.7633376717567444,2.445552110671997,-10.72022819519043,0
1275616,2024-02-06 10:09:36.699278,-3.211282730102539,4.242626190185547,-9.830066680908203,0
1275692,2024-02-06 10:09:36.774193,-5.352935314178467,4.477130889892578,-12.624982833862305,0
1275768,2024-02-06 10:09:36.849296,-2.9839563369750977,5.630512714385986,-9.109801292419434,0
1275845,2024-02-06 10:09:36.924185,-4.424487113952637,8.260318756103516,-7.027971267700195,0
1275921,2024-02-06 10:09:37.014267,-1.8712540864944458,5.513260364532471,-6.817395210266113,0
1275998,2024-02-06 10:09:37.074241,-3.807116746902466,5.934412002563477,-4.888711452484131,0
1276075,2024-02-06 10:09:37.164310,-3.393143653869629,6.798252105712891,-5.084929466247559,0
1276151,2024-02-06 10:09:37.239268,-3.7999379634857178,7.8726677894592285,-3.3213565349578857,0
1276227,2024-02-06 10:09:37.314275,-3.5941479206085205,9.085871696472168,-2.050722122192383,0
1276304,2024-02-06 10:09:37.389177,-2.6393775939941406,9.047585487365723,-1.689393162727356,0
1276380,2024-02-06 10:09:37.464281,-1.5864980220794678,7.6908063888549805,-1.2802058458328247,0
1276457,2024-02-06 10:09:37.539275,-1.6343562602996826,7.535267353057861,-0.9069121479988098,0
1276534,2024-02-06 10:09:37.614312,-0.3350071310997009,12.694377899169922,-2.9672060012817383,0
1276610,2024-02-06 10:09:37.689276,1.4812101125717163,11.167701721191406,-2.4048726558685303,0
1276686,2024-02-06 10:09:37.779294,-0.0023929080925881863,11.835323333740234,-1.957398772239685,0
1276763,2024-02-06 10:09:37.839259,1.1438100337982178,11.203596115112305,0.3421858549118042,0
1276839,2024-02-06 10:09:37.929294,1.3615647554397583,10.854230880737305,-0.5360113978385925,0
1276916,2024-02-06 10:09:38.004284,1.208418607711792,10.366077423095703,-0.7011220455169678,0
1276993,2024-02-06 10:09:38.079346,0.7824809551239014,9.140909194946289,-1.5793193578720093,0
1277069,2024-02-06 10:09:38.154279,0.9140908718109131,7.748236179351807,-1.2897775173187256,0
1277145,2024-02-06 10:09:38.229297,0.363722026348114,7.245725631713867,-0.9571632146835327,0
1277222,2024-02-06 10:09:38.304272,-0.028714897111058235,6.750393867492676,-1.1940611600875854,0
1277298,2024-02-06 10:09:38.379266,-0.37568655610084534,8.272283554077148,-0.619763195514679,0
1277375,2024-02-06 10:09:38.454266,-0.1316099464893341,9.088264465332031,-0.27518442273139954,0
1277452,2024-02-06 10:09:38.544310,0.3134709596633911,9.45438003540039,0.7537660598754883,0
1277528,2024-02-06 10:09:38.604239,0.4642241597175598,8.971012115478516,1.4668526649475098,0
1277604,2024-02-06 10:09:38.694266,0.4737958014011383,8.9590482711792,0.844696581363678,0
1277681,2024-02-06 10:09:38.769252,0.6556568145751953,9.614705085754395,1.4524952173233032,0
1277757,2024-02-06 10:09:38.844251,0.6891575455665588,10.153108596801758,1.148595929145813,0
1277833,2024-02-06 10:09:38.919259,-0.5599405169487,9.710420608520508,0.6054057478904724,0
1277910,2024-02-06 10:09:38.994265,-1.9262909889221191,10.239253997802734,0.5312256217002869,0
1277987,2024-02-06 10:09:39.069027,-2.093794584274292,9.317984580993652,0.5527617931365967,0
1278063,2024-02-06 10:09:39.144259,-2.1033661365509033,9.710420608520508,0.2943277060985565,0
1278140,2024-02-06 10:09:39.219682,-1.5386399030685425,9.629061698913574,0.7202653288841248,0
1278216,2024-02-06 10:09:39.309709,-1.079201579093933,9.353878021240234,0.9882710576057434,0
1278292,2024-02-06 10:09:39.369079,-0.8949476480484009,9.083478927612305,0.4450809061527252,0
1278369,2024-02-06 10:09:39.458566,-0.6293348073959351,9.406521797180176,0.9715206623077393,0
1278446,2024-02-06 10:09:39.534307,-0.8470894694328308,10.550332069396973,0.8016242384910583,0
1278523,2024-02-06 10:09:39.609274,0.3015064299106598,9.212696075439453,1.0026284456253052,0
1278599,2024-02-06 10:09:39.684310,-0.06700142472982407,8.75804328918457,1.777930736541748,0
1278675,2024-02-06 10:09:39.759258,-0.1603248417377472,9.105015754699707,1.8521108627319336,0
1278752,2024-02-06 10:09:39.833707,0.4833674430847168,9.535738945007324,2.3833365440368652,0
1278829,2024-02-06 10:09:39.908559,0.22493335604667664,10.378042221069336,1.2132043838500977,0
1278905,2024-02-06 10:09:39.984252,0.8781972527503967,9.408914566040039,1.6032484769821167,0
1278982,2024-02-06 10:09:40.074203,1.268241286277771,9.696063995361328,1.739644169807434,0
1279058,2024-02-06 10:09:40.134050,1.7085363864898682,9.389771461486816,2.115330696105957,0
1279134,2024-02-06 10:09:40.224186,1.7205009460449219,8.973404884338379,2.2995846271514893,0
1279211,2024-02-06 10:09:40.299249,1.7061434984207153,9.30601978302002,1.5003533363342285,0
1279288,2024-02-06 10:09:40.374216,1.7013576030731201,9.396949768066406,1.4788172245025635,0
1279364,2024-02-06 10:09:40.449259,1.0768086910247803,8.571396827697754,0.7968384027481079,0
1279441,2024-02-06 10:09:40.524130,0.5503688454627991,8.853759765625,-0.11725249886512756,0
1279517,2024-02-06 10:09:40.599240,-0.5360113978385925,8.176567077636719,-0.5599405169487,0
1279593,2024-02-06 10:09:40.674208,-1.229954719543457,8.504395484924316,-1.7444299459457397,0
1279670,2024-02-06 10:09:40.749100,-1.2108114957809448,8.856152534484863,-0.6748000979423523,0
1279747,2024-02-06 10:09:40.838662,-0.43790218234062195,10.050213813781738,-2.4144442081451416,0
1279823,2024-02-06 10:09:40.899277,-0.5288326740264893,9.47830867767334,-2.2014753818511963,0
1279900,2024-02-06 10:09:40.989237,-0.7370156645774841,9.325162887573242,-2.2110471725463867,0
1279976,2024-02-06 10:09:41.064233,0.04307234659790993,8.40389347076416,-3.259140729904175,0
1280052,2024-02-06 10:09:41.154252,0.4737958014011383,9.562060356140137,-3.857367753982544,0
1280129,2024-02-06 10:09:41.214274,0.4331163763999939,9.571632385253906,-3.251962184906006,0
1280206,2024-02-06 10:09:41.289221,0.9763064980506897,9.648205757141113,-4.182803153991699,0
1280282,2024-02-06 10:09:41.364219,0.6269419193267822,9.265339851379395,-3.4170727729797363,0
1280359,2024-02-06 10:09:41.439238,1.1820966005325317,15.228466987609863,-1.777930736541748,0
1280435,2024-02-06 10:09:41.513706,-1.4118157625198364,13.318926811218262,5.0059638023376465,0
1280511,2024-02-06 10:09:41.604212,-0.22493335604667664,6.456066131591797,0.03110780566930771,0
1280588,2024-02-06 10:09:41.679337,-0.6412993669509888,8.145459175109863,1.8664683103561401,0
1280665,2024-02-06 10:09:41.754237,-0.765730619430542,10.899696350097656,2.957634449005127,0
1280741,2024-02-06 10:09:41.829254,-0.5336185097694397,8.468502044677734,3.330928087234497,0
1280818,2024-02-06 10:09:41.904312,-0.6963362693786621,8.734114646911621,2.8834543228149414,0
1280894,2024-02-06 10:09:41.979228,-0.679585874080658,9.183980941772461,4.024871349334717,0
1280970,2024-02-06 10:09:42.054218,-0.4522596299648285,8.731721878051758,3.8836898803710938,0
1281047,2024-02-06 10:09:42.129250,-0.21536172926425934,8.396714210510254,3.8334388732910156,0
1281124,2024-02-06 10:09:42.219215,-0.1698964685201645,8.578575134277344,4.264162063598633,0
1281200,2024-02-06 10:09:42.278846,-0.09810923039913177,8.882474899291992,3.9530842304229736,0
1281277,2024-02-06 10:09:42.369207,-0.260826975107193,8.884867668151855,3.625255823135376,0
1281353,2024-02-06 10:09:42.444221,-0.07418014854192734,8.310569763183594,4.084693908691406,0
1281429,2024-02-06 10:09:42.519202,-0.19621846079826355,8.872902870178223,4.103837490081787,0
1281506,2024-02-06 10:09:42.594208,-0.38525819778442383,8.748472213745117,4.917426109313965,0
1281583,2024-02-06 10:09:42.669065,-0.12443122267723083,8.30817699432373,3.694650173187256,0
1281659,2024-02-06 10:09:42.744218,-0.059822700917720795,7.575946807861328,2.8643109798431396,0
1281736,2024-02-06 10:09:42.819269,-0.39722275733947754,8.789151191711426,2.6896286010742188,0
1281812,2024-02-06 10:09:42.909217,-0.6412993669509888,9.349091529846191,1.8066456317901611,0
1281888,2024-02-06 10:09:42.969226,0.059822700917720795,10.921232223510742,-0.06221561133861542,0
1281965,2024-02-06 10:09:43.044223,0.5360113978385925,12.706341743469238,-4.285698413848877,0
1282041,2024-02-06 10:09:43.134249,-0.06939433515071869,13.527109146118164,-3.6635422706604004,0
1282118,2024-02-06 10:09:43.209228,0.260826975107193,12.605839729309082,-4.249804973602295,0
1282195,2024-02-06 10:09:43.284101,-0.011964540928602219,10.99062728881836,-3.0724940299987793,0
1282271,2024-02-06 10:09:43.359272,0.35654330253601074,9.545310020446777,-1.6367491483688354,0
1282347,2024-02-06 10:09:43.434245,-0.5336185097694397,8.092815399169922,-1.5936768054962158,0
1282424,2024-02-06 10:09:43.509227,-1.1055235862731934,8.22203254699707,-1.6391420364379883,0
1282500,2024-02-06 10:09:43.583489,-0.5862624645233154,7.40365743637085,-0.6173703074455261,0
1282577,2024-02-06 10:09:43.658415,-0.9547703266143799,7.693199634552002,-0.6652284264564514,0
1282654,2024-02-06 10:09:43.734201,-0.9021263718605042,7.688413619995117,0.023929081857204437,0
1282730,2024-02-06 10:09:43.809229,-0.5838695764541626,9.239018440246582,2.6106626987457275,0
1282806,2024-02-06 10:09:43.899234,-0.6436922550201416,8.801115989685059,2.7853450775146484,0
1282883,2024-02-06 10:09:43.974050,-1.1940611600875854,8.93990421295166,2.950455665588379,0
1282959,2024-02-06 10:09:44.049244,-0.7154794931411743,9.310805320739746,3.687471389770508,0
1283036,2024-02-06 10:09:44.139251,0.8877689242362976,9.301233291625977,2.0483293533325195,0
1283113,2024-02-06 10:09:44.199185,1.1222739219665527,10.497687339782715,3.0030996799468994,0
1283189,2024-02-06 10:09:44.274198,1.2897775173187256,7.903775215148926,2.416837215423584,0
1283266,2024-02-06 10:09:44.349193,1.0887731313705444,8.612075805664062,2.98634934425354,0
1283342,2024-02-06 10:09:44.424179,0.9930568337440491,8.889653205871582,3.2782840728759766,0
1283418,2024-02-06 10:09:44.513491,0.45943835377693176,8.796330451965332,3.49843168258667,0
1283495,2024-02-06 10:09:44.573937,0.41875892877578735,8.865724563598633,3.036600351333618,0
1283572,2024-02-06 10:09:44.664201,0.3350071310997009,8.674291610717773,3.8047239780426025,0
1283648,2024-02-06 10:09:44.739154,0.2010042816400528,8.557039260864258,3.8812968730926514,0
1283725,2024-02-06 10:09:44.814254,-0.05264397710561752,9.095443725585938,4.443630218505859,0
1283801,2024-02-06 10:09:44.888508,-0.1914326548576355,10.1578950881958,4.682920932769775,0
1283877,2024-02-06 10:09:44.963441,-0.33740004897117615,10.969090461730957,3.280677080154419,0
1283954,2024-02-06 10:09:45.038994,-1.05048668384552,8.985369682312012,1.5960696935653687,0
1284031,2024-02-06 10:09:45.114206,-1.7468229532241821,8.770008087158203,0.9404128789901733,0
1284107,2024-02-06 10:09:45.189174,-1.012200117111206,10.662798881530762,1.4022440910339355,0
1284184,2024-02-06 10:09:45.264226,-1.0576653480529785,9.440022468566895,2.278048515319824,0
1284260,2024-02-06 10:09:45.339186,-1.0959519147872925,9.009299278259277,2.6585209369659424,0
1284336,2024-02-06 10:09:45.429230,-1.2610626220703125,8.971012115478516,2.873882532119751,0
1284413,2024-02-06 10:09:45.504229,-1.1198810338974,8.731721878051758,2.98634934425354,0
1284490,2024-02-06 10:09:45.579212,-0.9715206623077393,8.726935386657715,3.232818841934204,0
1284566,2024-02-06 10:09:45.654093,-1.0911661386489868,8.817866325378418,3.338106870651245,0
1284643,2024-02-06 10:09:45.729014,-0.6365135312080383,8.817866325378418,4.414915561676025,0
1284719,2024-02-06 10:09:45.804152,-0.6173703074455261,9.337127685546875,4.266555309295654,0
1284795,2024-02-06 10:09:45.879300,-0.6580497026443481,10.421114921569824,2.739879846572876,0
1284872,2024-02-06 10:09:45.954173,0.1722893863916397,8.353642463684082,1.749215841293335,0
1284949,2024-02-06 10:09:46.029182,0.11246667802333832,8.707792282104492,0.7106937170028687,0
1285025,2024-02-06 10:09:46.104256,0.48576033115386963,10.995412826538086,2.122509479522705,0
1285102,2024-02-06 10:09:46.194174,0.5384043455123901,9.430450439453125,2.8762755393981934,0
1285178,2024-02-06 10:09:46.269199,0.3804723918437958,8.470894813537598,2.627413034439087,0
1285254,2024-02-06 10:09:46.344172,0.40679436922073364,8.803508758544922,2.747058391571045,0
1285331,2024-02-06 10:09:46.419189,0.35654330253601074,8.954261779785156,2.816452741622925,0
1285408,2024-02-06 10:09:46.494217,0.2823631465435028,9.779815673828125,2.931312322616577,0
1285484,2024-02-06 10:09:46.569203,-1.1892752647399902,11.921467781066895,3.464931011199951,0
1285561,2024-02-06 10:09:46.644185,-1.2419192790985107,7.099758148193359,-0.13400284945964813,0
1285637,2024-02-06 10:09:46.719194,-1.7348583936691284,10.571867942810059,1.0145930051803589,0
1285713,2024-02-06 10:09:46.794200,-0.667621374130249,8.39432144165039,0.8494823575019836,0
1285790,2024-02-06 10:09:46.869208,-0.7944455146789551,8.578575134277344,0.9786993861198425,0
1285867,2024-02-06 10:09:46.959201,0.047858163714408875,2.2589051723480225,-0.7370156645774841,0
1285943,2024-02-06 10:09:47.034215,-1.3256710767745972,7.391693115234375,-0.46661707758903503,0
1286020,2024-02-06 10:09:47.109047,-0.41875892877578735,21.91425323486328,4.769065856933594,0
1286096,2024-02-06 10:09:47.184202,-1.2634555101394653,27.82952117919922,6.063629150390625,0
1286172,2024-02-06 10:09:47.259194,-0.2823631465435028,18.70775604248047,5.027499675750732,0
1286249,2024-02-06 10:09:47.334058,-0.8662327527999878,-2.971991777420044,-3.0796728134155273,0
1286326,2024-02-06 10:09:47.409179,0.9116979837417603,-0.8231604099273682,1.1892752647399902,0
1286403,2024-02-06 10:09:47.484203,-0.9380199909210205,0.382865309715271,-0.20339718461036682,0
1286479,2024-02-06 10:09:47.559220,0.1005021408200264,0.4115802049636841,-1.4668526649475098,0
1286555,2024-02-06 10:09:47.634151,0.1603248417377472,8.511573791503906,0.16271774470806122,0
1286632,2024-02-06 10:09:47.724144,-0.8686256408691406,22.237295150756836,3.2567479610443115,0
1286708,2024-02-06 10:09:47.799175,-1.6463208198547363,16.489530563354492,5.333792209625244,0
1286785,2024-02-06 10:09:47.874152,-1.021771788597107,7.891810894012451,1.5051392316818237,0
1286862,2024-02-06 10:09:47.949187,-0.8159816861152649,5.1902174949646,0.6915504336357117,0
1286938,2024-02-06 10:09:48.024135,-0.8758043646812439,7.92531156539917,1.3160994052886963,0
1287014,2024-02-06 10:09:48.099151,0.15553902089595795,10.002355575561523,2.711164951324463,0
1287091,2024-02-06 10:09:48.173984,0.41636601090431213,8.662327766418457,2.902597427368164,0
1287167,2024-02-06 10:09:48.249181,1.1294525861740112,8.880082130432129,3.443394660949707,0
1287244,2024-02-06 10:09:48.324182,1.0026284456253052,8.899225234985352,3.400322437286377,0
1287321,2024-02-06 10:09:48.399171,0.2512553632259369,8.789151191711426,3.091637372970581,0
1287397,2024-02-06 10:09:48.489138,0.2943277060985565,9.36823558807373,3.1993181705474854,0
1287473,2024-02-06 10:09:48.564199,-1.2132043838500977,10.397185325622559,2.9672060012817383,0
1287550,2024-02-06 10:09:48.638768,-1.5888910293579102,9.291662216186523,1.366350531578064,0
1287626,2024-02-06 10:09:48.714186,-2.1272952556610107,8.683863639831543,1.8856115341186523,0
1287703,2024-02-06 10:09:48.789174,-1.3759222030639648,9.684099197387695,2.108151912689209,0
1287780,2024-02-06 10:09:48.863495,-1.9430413246154785,9.571632385253906,2.790130853652954,0
1287856,2024-02-06 10:09:48.939179,-1.9262909889221191,8.851366996765137,2.5604116916656494,0
1287932,2024-02-06 10:09:49.014162,-2.1823322772979736,8.698221206665039,2.5173392295837402,0
1288009,2024-02-06 10:09:49.089161,-2.249333620071411,8.982976913452148,2.2517266273498535,0
1288085,2024-02-06 10:09:49.164172,-2.278048515319824,9.65299129486084,3.156245708465576,0
1288162,2024-02-06 10:09:49.254155,-2.0339717864990234,11.110272407531738,3.254354953765869,0
1288239,2024-02-06 10:09:49.329162,-1.0313433408737183,9.274911880493164,2.438373327255249,0
1288315,2024-02-06 10:09:49.404190,-0.5790837407112122,8.48285961151123,1.1940611600875854,0
1288391,2024-02-06 10:09:49.479132,0.06700142472982407,10.315826416015625,1.9310768842697144,0
1288468,2024-02-06 10:09:49.554127,-0.48576033115386963,9.901853561401367,2.8140599727630615,0
1288544,2024-02-06 10:09:49.629163,-0.2632198929786682,9.095443725585938,1.8114314079284668,0
1288621,2024-02-06 10:09:49.704141,-0.3038993179798126,9.315590858459473,2.134474039077759,0
1288698,2024-02-06 10:09:49.779159,-0.34697166085243225,9.408914566040039,2.0985803604125977,0
1288774,2024-02-06 10:09:49.853375,-0.41875892877578735,8.892046928405762,2.7518444061279297,0
1288851,2024-02-06 10:09:49.928447,-0.3302213251590729,8.875295639038086,2.804488182067871,0
1288927,2024-02-06 10:09:50.019151,0.12921704351902008,9.183980941772461,3.6300415992736816,0
1289003,2024-02-06 10:09:50.093665,-0.20339718461036682,9.956890106201172,4.017692565917969,0
1289080,2024-02-06 10:09:50.169168,-0.9906639456748962,9.2725191116333,1.868861198425293,0
1289157,2024-02-06 10:09:50.244170,-1.4692455530166626,9.966462135314941,1.8210030794143677,0
1289233,2024-02-06 10:09:50.319166,-2.3378713130950928,8.284247398376465,1.3615647554397583,0
1289310,2024-02-06 10:09:50.394166,-1.8521108627319336,10.057393074035645,1.3017419576644897,0
1289386,2024-02-06 10:09:50.469227,-1.9861136674880981,9.648205757141113,1.1246668100357056,0
1289462,2024-02-06 10:09:50.544136,-1.809038519859314,9.571632385253906,1.5434256792068481,0
1289539,2024-02-06 10:09:50.619173,-1.5338541269302368,9.016477584838867,2.163188934326172,0
1289616,2024-02-06 10:09:50.694146,-1.239526391029358,8.985369682312012,2.6393775939941406,0
1289692,2024-02-06 10:09:50.784169,-1.3926725387573242,8.75086498260498,2.6034839153289795,0
1289769,2024-02-06 10:09:50.859139,-1.426173210144043,8.994941711425781,3.589362144470215,0
1289845,2024-02-06 10:09:50.934160,-1.3519930839538574,7.980348587036133,3.8262600898742676,0
1289921,2024-02-06 10:09:51.009140,-0.8040171265602112,9.006906509399414,2.964813232421875,0
1289998,2024-02-06 10:09:51.083563,0.22014755010604858,6.956183910369873,1.7468229532241821,0
1290075,2024-02-06 10:09:51.173984,0.6819788217544556,7.6979851722717285,1.1892752647399902,0
1290151,2024-02-06 10:09:51.234208,1.0959519147872925,10.37325668334961,3.127530813217163,0
1290228,2024-02-06 10:09:51.309118,0.5479759573936462,10.172252655029297,4.986820697784424,0
1290304,2024-02-06 10:09:51.384232,1.1725249290466309,21.36149024963379,10.332576751708984,0
1290380,2024-02-06 10:09:51.459108,-0.181861013174057,11.012163162231445,4.02008581161499,0
1290457,2024-02-06 10:09:51.549113,0.19382555782794952,-4.888711452484131,-2.9337053298950195,0
1290534,2024-02-06 10:09:51.624125,0.8614469170570374,1.6774286031723022,-0.14357449114322662,0
1290610,2024-02-06 10:09:51.699163,4.953319549560547,17.764949798583984,-4.503453254699707,0
1290687,2024-02-06 10:09:51.774152,0.5479759573936462,14.989176750183105,2.2301902770996094,0
1290763,2024-02-06 10:09:51.849155,-2.0004711151123047,13.591717720031738,1.208418607711792,0
1290839,2024-02-06 10:09:51.924070,-3.0868513584136963,11.009770393371582,1.306527853012085,0
1290916,2024-02-06 10:09:51.999134,-2.249333620071411,9.954497337341309,1.7061434984207153,0
1290993,2024-02-06 10:09:52.074108,-1.1677391529083252,6.925076007843018,2.5269110202789307,0
1291069,2024-02-06 10:09:52.149116,-0.8207674622535706,6.042092800140381,1.2155972719192505,0
1291146,2024-02-06 10:09:52.239138,-1.6391420364379883,7.511338710784912,2.7638089656829834,0
1291222,2024-02-06 10:09:52.299585,-1.9789350032806396,11.880788803100586,4.6972784996032715,0
1291298,2024-02-06 10:09:52.389587,-0.40679436922073364,9.291662216186523,3.6372203826904297,0
1291375,2024-02-06 10:09:52.464547,-0.28714898228645325,7.808059215545654,1.5984625816345215,0
1291452,2024-02-06 10:09:52.539143,0.15553902089595795,9.964069366455078,2.402479648590088,0
1291528,2024-02-06 10:09:52.614218,0.6939433217048645,9.554882049560547,3.027028799057007,0
1291605,2024-02-06 10:09:52.689115,0.1507532149553299,8.961441040039062,1.8592896461486816,0
1291681,2024-02-06 10:09:52.763921,0.3445787727832794,9.456772804260254,2.7662017345428467,0
1291757,2024-02-06 10:09:52.839096,0.1722893863916397,9.329948425292969,3.4242515563964844,0
1291834,2024-02-06 10:09:52.914101,0.0047858161851763725,9.138516426086426,3.3404996395111084,0
1291911,2024-02-06 10:09:52.989121,-0.1698964685201645,9.569239616394043,3.5869691371917725,0
1291987,2024-02-06 10:09:53.078577,-0.8375178575515747,10.303862571716309,3.1083877086639404,0
1292064,2024-02-06 10:09:53.154120,-1.3448143005371094,8.401500701904297,1.8880045413970947,0
1292140,2024-02-06 10:09:53.229092,-1.581712245941162,8.437394142150879,1.7228938341140747,0
1292217,2024-02-06 10:09:53.304143,-2.191903829574585,9.337127685546875,1.8425391912460327,0
1292293,2024-02-06 10:09:53.379103,-2.4623024463653564,9.820494651794434,2.565197467803955,0
1292370,2024-02-06 10:09:53.454052,-1.8951832056045532,9.229446411132812,2.373764753341675,0
1292447,2024-02-06 10:09:53.529092,-1.8592896461486816,8.82983112335205,2.6680924892425537,0
1292523,2024-02-06 10:09:53.604124,-2.199082612991333,8.676684379577637,3.381179094314575,0
1292599,2024-02-06 10:09:53.678307,-1.7970739603042603,8.451751708984375,3.371607542037964,0
1292676,2024-02-06 10:09:53.753335,-2.1201164722442627,8.944690704345703,3.2160685062408447,0
1292752,2024-02-06 10:09:53.843915,-2.1392598152160645,9.188767433166504,3.737722396850586,0
1292829,2024-02-06 10:09:53.919131,-1.5075321197509766,9.932961463928223,3.6778998374938965,0
1292906,2024-02-06 10:09:53.994107,-0.8542681932449341,9.076300621032715,2.615448474884033,0
1292982,2024-02-06 10:09:54.068724,-0.6460852026939392,9.851602554321289,3.141888380050659,0
1293058,2024-02-06 10:09:54.144103,0.6149773597717285,8.880082130432129,2.4000868797302246,0
1293135,2024-02-06 10:09:54.219168,0.6580497026443481,9.47113037109375,2.368978977203369,0
1293211,2024-02-06 10:09:54.294093,0.5025107264518738,9.100229263305664,3.034207344055176,0
1293288,2024-02-06 10:09:54.369076,0.5790837407112122,9.049978256225586,3.2280330657958984,0
1293365,2024-02-06 10:09:54.444076,0.7226582169532776,8.547467231750488,2.711164951324463,0
1293441,2024-02-06 10:09:54.519116,0.5766908526420593,9.21748161315918,3.0940301418304443,0
1293517,2024-02-06 10:09:54.608367,0.49772489070892334,8.899225234985352,3.2017109394073486,0
1293594,2024-02-06 10:09:54.684094,0.284756064414978,9.119372367858887,3.577397584915161,0
1293670,2024-02-06 10:09:54.759099,0.07178724557161331,9.255768775939941,3.8693323135375977,0
1293747,2024-02-06 10:09:54.834075,-0.09810923039913177,10.490509033203125,3.127530813217163,0
1293824,2024-02-06 10:09:54.908381,-0.7609447836875916,9.423272132873535,2.4623024463653564,0
1293900,2024-02-06 10:09:54.984118,-1.2658483982086182,8.7843656539917,0.18903973698616028,0
1293976,2024-02-06 10:09:55.059109,-1.3376356363296509,10.150715827941895,2.6609137058258057,0
1294053,2024-02-06 10:09:55.134105,-0.8016242384910583,8.915975570678711,2.8619179725646973,0
1294129,2024-02-06 10:09:55.208906,-1.0409150123596191,8.786758422851562,3.2974274158477783,0
1294206,2024-02-06 10:09:55.284267,-1.0935590267181396,9.023656845092773,3.4027152061462402,0
1294283,2024-02-06 10:09:55.374096,-0.667621374130249,8.525931358337402,3.443394660949707,0
1294359,2024-02-06 10:09:55.449163,-0.7226582169532776,8.868117332458496,3.3404996395111084,0
1294435,2024-02-06 10:09:55.524127,-1.1462029218673706,9.195945739746094,3.8669395446777344,0
1294512,2024-02-06 10:09:55.599082,-0.38525819778442383,10.258397102355957,3.843010425567627,0
1294588,2024-02-06 10:09:55.673562,0.3350071310997009,8.94229793548584,2.971991777420044,0
1294665,2024-02-06 10:09:55.748546,0.679585874080658,8.616862297058105,2.2732627391815186,0
1294742,2024-02-06 10:09:55.824106,0.6245490312576294,9.10740852355957,2.206261157989502,0
1294818,2024-02-06 10:09:55.899115,0.6030128598213196,9.959283828735352,3.0509579181671143,0
1294894,2024-02-06 10:09:55.974116,0.8423036336898804,8.93990421295166,2.902597427368164,0
1294971,2024-02-06 10:09:56.048360,0.9284483194351196,8.999727249145508,2.615448474884033,0
1295047,2024-02-06 10:09:56.139087,0.9810923337936401,8.872902870178223,3.048564910888672,0
1295124,2024-02-06 10:09:56.213861,0.7944455146789551,8.937511444091797,3.084458589553833,0
1295201,2024-02-06 10:09:56.289056,0.30868515372276306,9.076300621032715,3.2567479610443115,0
1295277,2024-02-06 10:09:56.364126,-0.4450809061527252,10.36368465423584,3.421858549118042,0
1295353,2024-02-06 10:09:56.439066,-0.48815324902534485,9.46155834197998,3.232818841934204,0
1295430,2024-02-06 10:09:56.514095,-0.7537660598754883,9.341913223266602,2.7638089656829834,0
1295506,2024-02-06 10:09:56.589072,-1.3304568529129028,8.60250473022461,2.1129379272460938,0
1295583,2024-02-06 10:09:56.664117,-1.4716384410858154,9.423272132873535,1.5745335817337036,0
1295660,2024-02-06 10:09:56.739090,-1.9813278913497925,9.456772804260254,2.8930258750915527,0
1295736,2024-02-06 10:09:56.813789,-1.8521108627319336,8.56900405883789,2.696807384490967,0
1295813,2024-02-06 10:09:56.919111,-2.108151912689209,8.94947624206543,2.627413034439087,0
1295889,2024-02-06 10:09:56.994084,-2.002864122390747,9.188767433166504,2.8786685466766357,0
1295965,2024-02-06 10:09:57.053852,-1.897576093673706,8.456537246704102,3.2974274158477783,0
1296042,2024-02-06 10:09:57.129017,-1.8329676389694214,8.820259094238281,3.1251380443573,0
1296119,2024-02-06 10:09:57.204092,-1.4429235458374023,9.325162887573242,3.519967794418335,0
1296195,2024-02-06 10:09:57.279078,-1.0361292362213135,10.18182373046875,3.7712230682373047,0
1296272,2024-02-06 10:09:57.354079,-1.3639576435089111,9.04519271850586,1.809038519859314,0
1296348,2024-02-06 10:09:57.429086,-0.17946811020374298,8.67189884185791,2.0961875915527344,0
1296424,2024-02-06 10:09:57.504077,0.04546525329351425,8.60250473022461,0.7441943883895874,0
1296501,2024-02-06 10:09:57.579085,-0.2512553632259369,10.258397102355957,1.651106595993042,0
1296578,2024-02-06 10:09:57.668591,0.22014755010604858,10.263182640075684,2.234976053237915,0
1296654,2024-02-06 10:09:57.744061,-0.32543548941612244,8.595325469970703,1.2275618314743042,0
1296731,2024-02-06 10:09:57.819068,0.2129688262939453,7.339049339294434,0.8781972527503967,0
1296807,2024-02-06 10:09:57.894071,-0.06700142472982407,8.0736722946167,1.6534994840621948,0
1296883,2024-02-06 10:09:57.969074,-0.9188767075538635,8.303391456604004,-0.9093050956726074,0
1296960,2024-02-06 10:09:58.044055,-2.4981961250305176,9.629061698913574,1.05048668384552,0
1297037,2024-02-06 10:09:58.119048,-1.3831008672714233,9.899460792541504,-1.7372512817382812,0
1297113,2024-02-06 10:09:58.194041,-0.8877689242362976,8.360820770263672,-2.7303080558776855,0
1297190,2024-02-06 10:09:58.269036,-0.9763064980506897,8.82983112335205,-5.635298728942871,0
1297266,2024-02-06 10:09:58.344050,3.6778998374938965,8.478073120117188,-6.633141040802002,0
1297342,2024-02-06 10:09:58.479070,1.7372512817382812,10.028677940368652,-12.76137924194336,0
1297419,2024-02-06 10:09:58.508395,-0.6556568145751953,6.831752777099609,-9.552489280700684,0
1297496,2024-02-06 10:09:58.584074,-0.05742979422211647,8.67189884185791,-6.020556926727295,0
1297572,2024-02-06 10:09:58.659046,-0.6317277550697327,5.57308292388916,-4.405344009399414,0
1297649,2024-02-06 10:09:58.734033,-0.07178724557161331,6.913111686706543,-7.738664627075195,0
1297725,2024-02-06 10:09:58.809043,0.26561281085014343,7.552018165588379,-6.64031982421875,0
1297801,2024-02-06 10:09:58.883472,-0.7992312908172607,8.312962532043457,-7.348620891571045,0
1297878,2024-02-06 10:09:58.959042,-0.7059078812599182,9.786993980407715,-8.906403541564941,0
1297955,2024-02-06 10:09:59.034084,-1.426173210144043,10.97148323059082,-7.800880432128906,0
1298031,2024-02-06 10:09:59.123927,-1.3711363077163696,10.873373985290527,-6.300527095794678,0
1298108,2024-02-06 10:09:59.184064,-1.5960696935653687,9.2725191116333,-5.058607578277588,0
1298184,2024-02-06 10:09:59.274100,-1.6319633722305298,7.798487663269043,-3.582183361053467,0
1298261,2024-02-06 10:09:59.349044,-2.156010150909424,7.190688610076904,-2.9528486728668213,0
1298337,2024-02-06 10:09:59.424081,-2.6609137058258057,7.3797287940979,-3.019850015640259,0
1298414,2024-02-06 10:09:59.498941,-1.9478272199630737,7.054293155670166,-2.424015998840332,0
1298491,2024-02-06 10:09:59.573971,-1.6582852602005005,7.994706153869629,-2.3235137462615967,0
1298567,2024-02-06 10:09:59.649034,-1.9861136674880981,8.379963874816895,-2.21343994140625,0
1298643,2024-02-06 10:09:59.724080,-2.8260245323181152,9.423272132873535,-1.4453164339065552,0
1298720,2024-02-06 10:09:59.799029,-1.974149227142334,10.203360557556152,-1.3783150911331177,0
1298796,2024-02-06 10:09:59.888273,-1.560176134109497,11.112665176391602,-0.24407662451267242,0
1298873,2024-02-06 10:09:59.948359,-1.7587873935699463,9.81810188293457,0.40679436922073364,0
1298950,2024-02-06 10:10:00.039048,-1.4094228744506836,8.815473556518555,0.5742979645729065,0
1299026,2024-02-06 10:10:00.114060,-1.208418607711792,9.21748161315918,1.591283917427063,0
1299102,2024-02-06 10:10:00.189068,0.14357449114322662,8.659934043884277,2.072258472442627,0
1299179,2024-02-06 10:10:00.263941,0.0047858161851763725,8.820259094238281,3.0318145751953125,0
1299255,2024-02-06 10:10:00.339044,0.12682412564754486,8.779580116271973,3.2017109394073486,0
1299332,2024-02-06 10:10:00.414057,0.06460852175951004,8.475680351257324,3.6778998374938965,0
1299409,2024-02-06 10:10:00.489010,-0.1722893863916397,8.454144477844238,3.850189208984375,0
1299485,2024-02-06 10:10:00.564032,-0.22971917688846588,8.545074462890625,3.6850783824920654,0
1299561,2024-02-06 10:10:00.654044,0.14836029708385468,8.461322784423828,4.118195056915283,0
1299638,2024-02-06 10:10:00.729040,0.007178724277764559,9.363449096679688,3.6635422706604004,0
1299714,2024-02-06 10:10:00.803857,-0.6436922550201416,12.651305198669434,3.2495691776275635,0
1299791,2024-02-06 10:10:00.879112,-2.615448474884033,9.576417922973633,0.6125844717025757,0
1299868,2024-02-06 10:10:00.953885,-1.4955675601959229,9.870745658874512,0.0,0
1299944,2024-02-06 10:10:01.028945,-2.1105449199676514,9.31319808959961,0.619763195514679,0
1300020,2024-02-06 10:10:01.104076,-2.1057591438293457,9.31319808959961,2.017221450805664,0
1300097,2024-02-06 10:10:01.179053,-1.8353605270385742,8.640790939331055,2.3976938724517822,0
1300173,2024-02-06 10:10:01.254065,-1.4740313291549683,8.425429344177246,2.8475606441497803,0
1300250,2024-02-06 10:10:01.329056,-1.019378900527954,8.293819427490234,3.1012089252471924,0
1300327,2024-02-06 10:10:01.419042,-1.3400285243988037,8.935118675231934,4.216303825378418,0
1300403,2024-02-06 10:10:01.494070,-1.2873845100402832,9.444808006286621,5.34814977645874,0
1300480,2024-02-06 10:10:01.568723,-1.359171748161316,12.459872245788574,3.3357138633728027,0
1300556,2024-02-06 10:10:01.658576,0.33740004897117615,8.083243370056152,-0.07896596938371658,0
1300632,2024-02-06 10:10:01.719029,-0.27997025847435,10.205753326416016,1.7085363864898682,0
1300709,2024-02-06 10:10:01.793470,-0.30868515372276306,9.775029182434082,1.9717562198638916,0
1300786,2024-02-06 10:10:01.869048,0.5838695764541626,9.014084815979004,2.172760486602783,0
1300862,2024-02-06 10:10:01.944041,0.2727915346622467,8.58575439453125,2.6034839153289795,0
1300939,2024-02-06 10:10:02.019045,-0.23450499773025513,8.257925987243652,3.302213191986084,0
1301015,2024-02-06 10:10:02.094041,-0.07657305896282196,8.880082130432129,3.704221725463867,0
1301091,2024-02-06 10:10:02.184009,-0.5336185097694397,9.260554313659668,4.513024806976318,0
1301168,2024-02-06 10:10:02.259038,-1.404637098312378,12.361763000488281,5.159110069274902,0
1301245,2024-02-06 10:10:02.334020,-0.648478090763092,9.911425590515137,2.459909439086914,0
1301321,2024-02-06 10:10:02.408895,-1.074415683746338,9.023656845092773,1.0911661386489868,0
1301398,2024-02-06 10:10:02.484039,-0.8949476480484009,9.253376007080078,2.2517266273498535,0
1301474,2024-02-06 10:10:02.558860,-0.6412993669509888,8.810688018798828,2.909776210784912,0
1301550,2024-02-06 10:10:02.634056,-0.7944455146789551,8.224425315856934,3.153852939605713,0
1301627,2024-02-06 10:10:02.708990,-0.7920525670051575,8.980584144592285,3.381179094314575,0
1301704,2024-02-06 10:10:02.784047,-0.7920525670051575,8.463715553283691,3.309391975402832,0
1301780,2024-02-06 10:10:02.859004,-0.8135887384414673,9.03562068939209,4.010513782501221,0
1301857,2024-02-06 10:10:02.934081,-0.8686256408691406,9.428057670593262,4.0511932373046875,0
1301933,2024-02-06 10:10:03.024045,-0.4331163763999939,10.935589790344238,3.000706672668457,0
1302009,2024-02-06 10:10:03.098907,1.5075321197509766,8.9590482711792,1.6487137079238892,0
1302086,2024-02-06 10:10:03.174075,1.0098072290420532,8.643183708190918,0.5527617931365967,0
1302163,2024-02-06 10:10:03.249017,0.6412993669509888,10.275147438049316,1.5458186864852905,0
1302239,2024-02-06 10:10:03.324081,1.3232781887054443,9.614705085754395,2.1823322772979736,0
1302316,2024-02-06 10:10:03.399013,0.806410014629364,9.48788070678711,1.8951832056045532,0
1302392,2024-02-06 10:10:03.474078,0.5671192407608032,9.322770118713379,1.8138242959976196,0
1302468,2024-02-06 10:10:03.548985,0.5192610621452332,9.2725191116333,2.7709875106811523,0
1302545,2024-02-06 10:10:03.623919,0.181861013174057,9.337127685546875,2.409658432006836,0
1302622,2024-02-06 10:10:03.714003,-0.09810923039913177,9.770243644714355,3.09881591796875,0
1302699,2024-02-06 10:10:03.788208,0.4307234585285187,9.31319808959961,3.0533506870269775,0
1302775,2024-02-06 10:10:03.863204,0.021536173298954964,9.329948425292969,2.9528486728668213,0
1302851,2024-02-06 10:10:03.939002,-0.4259376525878906,8.48046588897705,1.9908995628356934,0
1302928,2024-02-06 10:10:04.028997,-0.9332341551780701,8.645576477050781,2.002864122390747,0
1303004,2024-02-06 10:10:04.088990,-0.9404128789901733,8.853759765625,1.6678569316864014,0
1303081,2024-02-06 10:10:04.163259,-1.7444299459457397,9.63624095916748,2.1320810317993164,0
1303158,2024-02-06 10:10:04.238983,-1.682214379310608,9.502238273620605,1.682214379310608,0
1303234,2024-02-06 10:10:04.313972,-1.485995888710022,9.700849533081055,1.0696299076080322,0
1303310,2024-02-06 10:10:04.388877,-1.3448143005371094,9.858781814575195,1.2060257196426392,0
1303387,2024-02-06 10:10:04.478755,-1.2802058458328247,9.830066680908203,0.9356270432472229,0
1303463,2024-02-06 10:10:04.553991,-0.904519259929657,9.241411209106445,0.9140908718109131,0
1303540,2024-02-06 10:10:04.628251,-0.23929080367088318,8.590539932250977,0.16511066257953644,0
1303617,2024-02-06 10:10:04.703222,-0.2895418703556061,7.456301689147949,-2.002864122390747,0
1303693,2024-02-06 10:10:04.793498,-0.5312256217002869,7.284012317657471,-2.9121692180633545,0
1303769,2024-02-06 10:10:04.853267,-0.28714898228645325,5.1040730476379395,-1.7635732889175415,0
1303846,2024-02-06 10:10:04.928275,0.08375178277492523,3.744901180267334,-2.467088222503662,0
1303922,2024-02-06 10:10:05.003719,0.11485958844423294,8.346463203430176,-4.173231601715088,0
1303999,2024-02-06 10:10:05.078234,-0.12921704351902008,9.657776832580566,-8.982976913452148,0
1304076,2024-02-06 10:10:05.154053,0.9547703266143799,11.543388366699219,-8.092815399169922,0
1304152,2024-02-06 10:10:05.243441,0.22971917688846588,9.688884735107422,-7.415622234344482,0
1304228,2024-02-06 10:10:05.334556,0.904519259929657,7.109330177307129,-4.300055980682373,1
1304305,2024-02-06 10:10:05.394143,5.092108249664307,11.361527442932129,-21.617530822753906,1
1304381,2024-02-06 10:10:05.469062,-0.5838695764541626,3.421858549118042,-15.032248497009277,1
1304458,2024-02-06 10:10:05.558456,-3.3261423110961914,0.13878867030143738,-9.597954750061035,1
1304535,2024-02-06 10:10:05.618979,-1.2251689434051514,-0.028714897111058235,-7.272047519683838,1
1304611,2024-02-06 10:10:05.693982,-0.39004403352737427,2.9456698894500732,-9.648205757141113,1
1304688,2024-02-06 10:10:05.768955,-0.382865309715271,4.237840175628662,-8.982976913452148,1
1304764,2024-02-06 10:10:05.843937,-0.1603248417377472,3.49843168258667,-7.987527370452881,1
1304840,2024-02-06 10:10:05.918986,-0.3613291084766388,4.651813507080078,-9.806137084960938,1
1304917,2024-02-06 10:10:05.993956,0.5599405169487,4.577633380889893,-8.67189884185791,1
1304994,2024-02-06 10:10:06.084002,-0.33740004897117615,4.6972784996032715,-8.49003791809082,1
1305070,2024-02-06 10:10:06.158988,-0.3038993179798126,5.905697345733643,-10.756121635437012,1
1305147,2024-02-06 10:10:06.234091,0.2321120798587799,5.719050407409668,-8.820259094238281,1
1305223,2024-02-06 10:10:06.308957,1.4357448816299438,5.932019233703613,-9.832459449768066,1
1305299,2024-02-06 10:10:06.383967,1.0887731313705444,5.396007537841797,-9.284482955932617,1
1305376,2024-02-06 10:10:06.458978,0.8088029623031616,5.046643257141113,-8.994941711425781,1
1305453,2024-02-06 10:10:06.533780,1.0313433408737183,4.654206275939941,-8.779580116271973,1
1305529,2024-02-06 10:10:06.608992,0.3445787727832794,4.998785018920898,-8.406286239624023,1
1305606,2024-02-06 10:10:06.684008,0.904519259929657,5.860231876373291,-9.260554313659668,1
1305682,2024-02-06 10:10:06.774004,0.21775463223457336,5.2524333000183105,-9.212696075439453,1
1305758,2024-02-06 10:10:06.848964,0.5240468978881836,3.850189208984375,-8.95665454864502,1
1305835,2024-02-06 10:10:06.923930,0.46661707758903503,2.3450498580932617,-10.684334754943848,1
1305912,2024-02-06 10:10:06.998964,0.38525819778442383,2.0914015769958496,-9.899460792541504,1
1305988,2024-02-06 10:10:07.073529,0.3613291084766388,1.8784328699111938,-9.985605239868164,1
1306065,2024-02-06 10:10:07.148261,0.3613291084766388,1.8712540864944458,-11.186845779418945,1
1306141,2024-02-06 10:10:07.223986,0.9260554313659668,7.654912948608398,-11.87600326538086,1
1306217,2024-02-06 10:10:07.298954,-0.5766908526420593,4.429272651672363,-6.994470119476318,1
1306294,2024-02-06 10:10:07.374006,0.1411815732717514,2.6944146156311035,-8.265104293823242,1
1306371,2024-02-06 10:10:07.448967,-0.8829830884933472,5.063393592834473,-8.444572448730469,1
1306448,2024-02-06 10:10:07.538973,0.260826975107193,5.053822040557861,-8.145459175109863,1
1306524,2024-02-06 10:10:07.613974,-0.33740004897117615,5.2380757331848145,-7.719521522521973,1
1306600,2024-02-06 10:10:07.688841,0.12203831225633621,5.831517219543457,-8.454144477844238,1
1306677,2024-02-06 10:10:07.763387,-0.18425391614437103,6.05884313583374,-9.954497337341309,1
1306753,2024-02-06 10:10:07.838954,-1.2155972719192505,6.5374250411987305,-8.889653205871582,1
1306830,2024-02-06 10:10:07.913221,-0.4331163763999939,5.5467610359191895,-8.518753051757812,1
1306907,2024-02-06 10:10:07.988840,0.29672059416770935,6.240704536437988,-8.77718734741211,1
1306983,2024-02-06 10:10:08.063598,-0.3445787727832794,5.733407974243164,-9.023656845092773,1
1307059,2024-02-06 10:10:08.138968,0.22732627391815186,5.6592278480529785,-8.607290267944336,1
1307136,2024-02-06 10:10:08.213801,-0.758551836013794,5.396007537841797,-8.368000030517578,1
1307212,2024-02-06 10:10:08.303847,0.8805902004241943,5.398400783538818,-8.825044631958008,1
1307289,2024-02-06 10:10:08.378423,-0.11246667802333832,5.934412002563477,-8.31535530090332,1
1307366,2024-02-06 10:10:08.453953,-1.4740313291549683,5.498902797698975,-7.7673797607421875,1
1307442,2024-02-06 10:10:08.529058,-0.12443122267723083,6.219168186187744,-8.537896156311035,1
1307518,2024-02-06 10:10:08.603825,-0.11725249886512756,6.001413345336914,-7.595090389251709,1
1307595,2024-02-06 10:10:08.678758,-0.08375178277492523,4.8025665283203125,-8.269890785217285,1
1307671,2024-02-06 10:10:08.753825,-0.45704543590545654,4.3048415184021,-7.408443450927734,1
1307748,2024-02-06 10:10:08.828760,0.3421858549118042,4.259376525878906,-7.3797287940979,1
1307825,2024-02-06 10:10:08.903714,-0.12443122267723083,5.259612083435059,-7.372550010681152,0
1307901,2024-02-06 10:10:08.978941,0.3110780417919159,4.740350723266602,-7.6979851722717285,0
1307977,2024-02-06 10:10:09.068948,-2.038757801055908,3.436216115951538,-13.287818908691406,0
1308054,2024-02-06 10:10:09.143937,2.1392598152160645,7.961205005645752,-9.12415885925293,0
1308130,2024-02-06 10:10:09.218941,2.2852272987365723,6.4680304527282715,-9.325162887573242,0
1308207,2024-02-06 10:10:09.293944,2.909776210784912,7.111722946166992,-8.298604965209961,0
1308284,2024-02-06 10:10:09.368957,2.3354783058166504,7.238546848297119,-6.1306304931640625,0
1308360,2024-02-06 10:10:09.443954,1.6870001554489136,9.095443725585938,-4.285698413848877,0
1308436,2024-02-06 10:10:09.518933,3.350071430206299,10.153108596801758,-4.268948078155518,0
1308513,2024-02-06 10:10:09.593986,4.161267280578613,8.590539932250977,-1.5793193578720093,0
1308589,2024-02-06 10:10:09.669007,3.814295530319214,8.973404884338379,-0.461831271648407,0
1308666,2024-02-06 10:10:09.743932,0.7753022313117981,6.377099990844727,0.6269419193267822,0
1308743,2024-02-06 10:10:09.833969,-0.6532639265060425,7.432372570037842,1.2179901599884033,0
1308819,2024-02-06 10:10:09.908225,0.46661707758903503,9.186373710632324,0.8135887384414673,0
1308896,2024-02-06 10:10:09.983641,0.3948298394680023,9.985605239868164,1.777930736541748,0
1308972,2024-02-06 10:10:10.058917,0.34936457872390747,10.818337440490723,-0.22014755010604858,0
1309048,2024-02-06 10:10:10.133983,1.4213874340057373,13.670683860778809,-0.5072965025901794,0
1309125,2024-02-06 10:10:10.208584,0.6054057478904724,13.603682518005371,0.20339718461036682,0
1309202,2024-02-06 10:10:10.284054,-0.009571632370352745,11.540995597839355,-1.5458186864852905,0
1309278,2024-02-06 10:10:10.358918,-1.0145930051803589,9.0978364944458,-3.1945323944091797,0
1309355,2024-02-06 10:10:10.433946,-1.9837207794189453,8.035385131835938,-2.318727970123291,0
1309431,2024-02-06 10:10:10.508953,-1.5721405744552612,8.24596118927002,-0.7154794931411743,0
1309507,2024-02-06 10:10:10.643944,-0.1722893863916397,6.724071502685547,0.0023929080925881863,0
1309584,2024-02-06 10:10:10.673505,0.3445787727832794,6.338813304901123,0.3541503846645355,0
1309661,2024-02-06 10:10:10.748949,0.14836029708385468,7.238546848297119,0.38765111565589905,0
1309737,2024-02-06 10:10:10.823982,-0.4714028835296631,10.133965492248535,1.4142086505889893,0
1309814,2024-02-06 10:10:10.898948,2.514946460723877,10.047821044921875,-0.461831271648407,0
1309890,2024-02-06 10:10:10.973746,2.079437017440796,10.258397102355957,0.3924369215965271,0
1309966,2024-02-06 10:10:11.048938,1.897576093673706,9.772636413574219,1.1940611600875854,0
1310043,2024-02-06 10:10:11.123962,1.5721405744552612,8.511573791503906,1.3017419576644897,0
1310120,2024-02-06 10:10:11.198951,1.5290682315826416,8.50678825378418,1.9502201080322266,0
1310196,2024-02-06 10:10:11.288905,1.0648441314697266,8.418251037597656,2.2995846271514893,0
1310273,2024-02-06 10:10:11.348591,0.6436922550201416,9.143301963806152,2.3163349628448486,0
1310349,2024-02-06 10:10:11.438767,-0.1411815732717514,9.588382720947266,3.259140729904175,0
1310426,2024-02-06 10:10:11.513342,0.8662327527999878,10.765693664550781,2.6752712726593018,0
1310502,2024-02-06 10:10:11.588723,-0.06460852175951004,8.68864917755127,2.648949146270752,0
1310579,2024-02-06 10:10:11.663926,-0.23929080367088318,9.911425590515137,0.7800880670547485,0
1310656,2024-02-06 10:10:11.753925,-0.3326142132282257,9.952104568481445,1.6774286031723022,0
1310732,2024-02-06 10:10:11.813346,-0.48576033115386963,8.743685722351074,1.7898952960968018,0
1310808,2024-02-06 10:10:11.888953,-0.7537660598754883,9.36823558807373,1.8233959674835205,0
1310885,2024-02-06 10:10:11.963924,-1.1198810338974,9.674527168273926,2.380943536758423,0
1310961,2024-02-06 10:10:12.053925,-1.139024257659912,9.002120018005371,2.6561279296875,0
1311038,2024-02-06 10:10:12.113508,-1.0480937957763672,9.05237102508545,2.8499536514282227,0
1311115,2024-02-06 10:10:12.203905,-0.7824809551239014,9.27969741821289,3.4936459064483643,0
1311191,2024-02-06 10:10:12.278928,-0.6915504336357117,11.438100814819336,3.6228628158569336,0
1311267,2024-02-06 10:10:12.353897,0.7872667908668518,8.624040603637695,1.5003533363342285,0
1311344,2024-02-06 10:10:12.428944,0.7776951193809509,8.760436058044434,1.9215052127838135,0
1311420,2024-02-06 10:10:12.503997,0.6460852026939392,9.468737602233887,1.3783150911331177,0
1311497,2024-02-06 10:10:12.578980,0.9763064980506897,10.203360557556152,2.7303080558776855,0
1311574,2024-02-06 10:10:12.653922,0.8901618123054504,8.877689361572266,2.529303789138794,0
1311650,2024-02-06 10:10:12.728906,0.8303391337394714,8.848974227905273,2.7446656227111816,0
1311726,2024-02-06 10:10:12.818944,0.5862624645233154,9.014084815979004,3.3763933181762695,0
1311803,2024-02-06 10:10:12.878909,0.3517574965953827,9.394556999206543,2.902597427368164,0
1311879,2024-02-06 10:10:12.968891,-0.17468228936195374,9.315590858459473,3.653970718383789,0
1311956,2024-02-06 10:10:13.043936,0.181861013174057,11.105486869812012,3.5103962421417236,0
1312033,2024-02-06 10:10:13.118924,-0.38765111565589905,9.320377349853516,2.2876200675964355,0
1312109,2024-02-06 10:10:13.193920,-0.904519259929657,8.358428001403809,0.6652284264564514,0
1312185,2024-02-06 10:10:13.268915,-0.8207674622535706,10.35650634765625,1.9430413246154785,0
1312262,2024-02-06 10:10:13.343925,-0.7035149931907654,9.20073127746582,2.8212387561798096,0
1312338,2024-02-06 10:10:13.418902,-0.8327320218086243,8.49003791809082,2.0626866817474365,0
1312415,2024-02-06 10:10:13.493923,-1.0409150123596191,9.038013458251953,2.809274196624756,0
1312492,2024-02-06 10:10:13.583741,-1.2036327123641968,8.604897499084473,3.1729960441589355,0
1312568,2024-02-06 10:10:13.658895,-1.1150951385498047,8.698221206665039,3.266319513320923,0
1312645,2024-02-06 10:10:13.733907,-1.139024257659912,9.334734916687012,3.3692145347595215,0
1312721,2024-02-06 10:10:13.808308,-0.4953319728374481,10.911661148071289,4.273733615875244,0
1312797,2024-02-06 10:10:13.883206,-0.32543548941612244,9.36584186553955,2.8714897632598877,0
1312874,2024-02-06 10:10:13.958154,0.4259376525878906,8.841794967651367,1.868861198425293,0
1312951,2024-02-06 10:10:14.033936,1.268241286277771,8.650362968444824,1.552997350692749,0
1313027,2024-02-06 10:10:14.108918,0.8829830884933472,9.978426933288574,2.409658432006836,0
1313104,2024-02-06 10:10:14.183301,0.5814766883850098,9.150480270385742,2.6656997203826904,0
1313180,2024-02-06 10:10:14.258916,0.49054616689682007,8.887260437011719,2.6752712726593018,0
1313256,2024-02-06 10:10:14.348146,0.45704543590545654,9.009299278259277,3.019850015640259,0
1313333,2024-02-06 10:10:14.423514,0.3948298394680023,9.150480270385742,3.0677082538604736,0
1313410,2024-02-06 10:10:14.498527,0.4450809061527252,9.298840522766113,2.833203077316284,0
1313486,2024-02-06 10:10:14.573324,-1.0648441314697266,11.182059288024902,3.7544727325439453,0
1313563,2024-02-06 10:10:14.663179,-0.36611494421958923,9.440022468566895,1.7205009460449219,0
1313639,2024-02-06 10:10:14.723234,-0.45704543590545654,8.363213539123535,2.9193477630615234,0
1313715,2024-02-06 10:10:14.798148,-0.9667348861694336,8.94229793548584,1.3926725387573242,0
1313792,2024-02-06 10:10:14.873225,-0.679585874080658,9.777422904968262,2.979170560836792,0
1313869,2024-02-06 10:10:14.948167,-1.0002355575561523,9.270126342773438,2.7997024059295654,0
1313945,2024-02-06 10:10:15.023884,-1.1246668100357056,8.707792282104492,2.3498356342315674,0
1314022,2024-02-06 10:10:15.113775,-0.7776951193809509,8.765222549438477,3.1323165893554688,0
1314098,2024-02-06 10:10:15.188849,-0.8518753051757812,8.815473556518555,3.036600351333618,0
1314174,2024-02-06 10:10:15.263369,-0.7154794931411743,9.01169204711914,3.4457876682281494,0
1314251,2024-02-06 10:10:15.338841,-0.8829830884933472,9.913818359375,3.3404996395111084,0
1314328,2024-02-06 10:10:15.413258,0.27997025847435,9.021263122558594,1.6606782674789429,0
1314404,2024-02-06 10:10:15.488906,0.3421858549118042,8.693434715270996,1.1127022504806519,0
1314481,2024-02-06 10:10:15.563194,0.5910483002662659,9.444808006286621,1.0600582361221313,0
1314557,2024-02-06 10:10:15.638859,0.7154794931411743,9.712814331054688,1.1557745933532715,0
1314633,2024-02-06 10:10:15.713866,0.3732936680316925,9.569239616394043,1.4477094411849976,0
1314710,2024-02-06 10:10:15.788892,0.9547703266143799,8.904010772705078,2.495803117752075,0
1314787,2024-02-06 10:10:15.878815,-0.07896596938371658,8.793937683105469,0.9619490504264832,0
1314863,2024-02-06 10:10:15.953876,-0.746587336063385,9.985605239868164,1.208418607711792,0
1314940,2024-02-06 10:10:16.028871,0.23929080367088318,10.820730209350586,-0.25604116916656494,0
1315016,2024-02-06 10:10:16.103877,0.0047858161851763725,11.196416854858398,-2.7877378463745117,0
1315092,2024-02-06 10:10:16.178869,-0.4714028835296631,9.7391357421875,-2.5556259155273438,0
1315169,2024-02-06 10:10:16.253728,0.0047858161851763725,9.363449096679688,-2.388122320175171,0
1315246,2024-02-06 10:10:16.328390,-0.6341206431388855,9.071514129638672,-1.9526129961013794,0
1315322,2024-02-06 10:10:16.403870,0.39722275733947754,9.451987266540527,-2.141652822494507,0
1315399,2024-02-06 10:10:16.478883,1.079201579093933,10.650834083557129,-1.5075321197509766,0
1315475,2024-02-06 10:10:16.553905,1.3615647554397583,10.026285171508789,-1.9837207794189453,0
1315551,2024-02-06 10:10:16.643862,1.4453164339065552,9.205517768859863,-2.0890088081359863,0
1315628,2024-02-06 10:10:16.718809,2.5532329082489014,9.73195743560791,-2.1966896057128906,0
1315705,2024-02-06 10:10:16.793852,2.4623024463653564,9.968854904174805,-2.424015998840332,0
1315781,2024-02-06 10:10:16.868859,3.3357138633728027,9.39216423034668,-2.6656997203826904,0
1315858,2024-02-06 10:10:16.943487,3.05574369430542,9.45438003540039,-2.598698139190674,0
1315934,2024-02-06 10:10:17.018880,3.019850015640259,9.128944396972656,-2.54366135597229,0
1316011,2024-02-06 10:10:17.093656,2.8260245323181152,8.32492733001709,-1.4572809934616089,0
1316087,2024-02-06 10:10:17.168708,2.290013074874878,8.509181022644043,-1.9238981008529663,0
1316164,2024-02-06 10:10:17.243673,1.7157150506973267,8.892046928405762,-1.7348583936691284,0
1316241,2024-02-06 10:10:17.318849,2.4120514392852783,10.040642738342285,-1.622391700744629,0
1316317,2024-02-06 10:10:17.408882,1.907147765159607,10.500081062316895,-1.2562767267227173,0
1316393,2024-02-06 10:10:17.483870,1.2825987339019775,9.964069366455078,-1.4477094411849976,0
1316470,2024-02-06 10:10:17.558875,0.6867645978927612,9.822887420654297,-2.3857293128967285,0
1316546,2024-02-06 10:10:17.633927,0.41875892877578735,9.81810188293457,-0.9619490504264832,0
1316623,2024-02-06 10:10:17.708858,0.27757734060287476,9.839637756347656,-0.3541503846645355,0
1316700,2024-02-06 10:10:17.783845,-0.059822700917720795,9.952104568481445,0.22493335604667664,0
1316776,2024-02-06 10:10:17.858839,-0.260826975107193,9.691277503967285,0.6436922550201416,0
1316852,2024-02-06 10:10:17.933434,-0.3110780417919159,9.684099197387695,0.8399107456207275,0
1316929,2024-02-06 10:10:18.008863,-0.7609447836875916,8.892046928405762,1.5099250078201294,0
1317005,2024-02-06 10:10:18.083712,-1.2419192790985107,8.372785568237305,2.6561279296875,0
1317082,2024-02-06 10:10:18.173897,-1.2275618314743042,9.038013458251953,2.2373690605163574,0
1317159,2024-02-06 10:10:18.248957,-1.7516087293624878,9.140909194946289,2.6944146156311035,0
1317235,2024-02-06 10:10:18.323898,-2.0220072269439697,8.731721878051758,2.684842824935913,0
1317311,2024-02-06 10:10:18.398836,-2.333085298538208,9.109801292419434,3.0868513584136963,0
1317388,2024-02-06 10:10:18.473221,-2.2876200675964355,9.112194061279297,2.833203077316284,0
1317464,2024-02-06 10:10:18.548821,-2.6609137058258057,9.775029182434082,1.5123178958892822,0
1317541,2024-02-06 10:10:18.638766,-1.9861136674880981,8.762829780578613,3.366821765899658,0
1317618,2024-02-06 10:10:18.698855,-1.5123178958892822,8.966226577758789,3.000706672668457,0
1317694,2024-02-06 10:10:18.773870,-1.454888105392456,10.08610725402832,3.4529664516448975,0
1317771,2024-02-06 10:10:18.848560,-1.742037057876587,8.92554759979248,2.3976938724517822,0
1317847,2024-02-06 10:10:18.938082,-1.8066456317901611,9.157659530639648,2.7422726154327393,0
1317923,2024-02-06 10:10:19.013835,-1.49317467212677,9.236625671386719,2.845167636871338,0
1318000,2024-02-06 10:10:19.088916,-0.39004403352737427,9.55009651184082,2.6082699298858643,0
1318077,2024-02-06 10:10:19.163653,0.07896596938371658,9.258161544799805,2.577162027359009,0
1318153,2024-02-06 10:10:19.238835,0.2895418703556061,8.789151191711426,2.5963053703308105,0
1318230,2024-02-06 10:10:19.313829,0.6580497026443481,8.566611289978027,2.98634934425354,0
1318306,2024-02-06 10:10:19.388644,0.31586387753486633,8.994941711425781,2.9408841133117676,0
1318382,2024-02-06 10:10:19.463849,0.16271774470806122,9.853995323181152,3.5654330253601074,0
1318459,2024-02-06 10:10:19.538815,0.4833674430847168,9.191160202026367,3.007885456085205,0
1318536,2024-02-06 10:10:19.613832,0.746587336063385,9.27969741821289,2.8499536514282227,0
1318612,2024-02-06 10:10:19.703849,0.461831271648407,9.404129028320312,2.7566301822662354,0
1318689,2024-02-06 10:10:19.778855,-0.41875892877578735,10.887731552124023,3.113173484802246,0
1318765,2024-02-06 10:10:19.853134,-0.31825676560401917,10.186610221862793,1.9837207794189453,0
1318841,2024-02-06 10:10:19.928133,-0.9308412671089172,9.899460792541504,1.7205009460449219,0
1318918,2024-02-06 10:10:20.003844,-1.5482115745544434,8.94947624206543,1.2873845100402832,0
1318995,2024-02-06 10:10:20.078840,-2.093794584274292,8.82983112335205,1.5338541269302368,0
1319071,2024-02-06 10:10:20.153834,-1.7827165126800537,9.523774147033691,2.467088222503662,0
1319148,2024-02-06 10:10:20.228848,-1.5721405744552612,8.528324127197266,2.8834543228149414,0
1319224,2024-02-06 10:10:20.303811,-1.7946810722351074,8.365606307983398,2.907383441925049,0
1319300,2024-02-06 10:10:20.378822,-1.7946810722351074,8.734114646911621,3.3620357513427734,0
1319377,2024-02-06 10:10:20.468849,-1.9382555484771729,9.250982284545898,3.519967794418335,0
1319454,2024-02-06 10:10:20.543060,-1.8640754222869873,9.418486595153809,4.137338161468506,0
1319531,2024-02-06 10:10:20.618847,-1.5338541269302368,10.418722152709961,4.4651665687561035,0
1319607,2024-02-06 10:10:20.693816,0.5766908526420593,8.604897499084473,2.0267932415008545,0
1319683,2024-02-06 10:10:20.768830,0.5719050168991089,8.009063720703125,1.0098072290420532,0
1319760,2024-02-06 10:10:20.843825,0.2129688262939453,10.093286514282227,2.47426700592041,0
1319836,2024-02-06 10:10:20.918821,0.708300769329071,9.088264465332031,2.409658432006836,0
1319913,2024-02-06 10:10:20.993811,0.23929080367088318,9.066728591918945,2.050722122192383,0
1319990,2024-02-06 10:10:21.068384,0.4522596299648285,8.937511444091797,2.5628044605255127,0
1320066,2024-02-06 10:10:21.143827,0.27997025847435,9.294054985046387,2.1895108222961426,0
1320142,2024-02-06 10:10:21.233846,0.2010042816400528,10.236861228942871,2.790130853652954,0
1320219,2024-02-06 10:10:21.308816,0.2512553632259369,10.935589790344238,3.7975451946258545,0
1320295,2024-02-06 10:10:21.383215,-1.072022795677185,9.485487937927246,1.9908995628356934,0
1320372,2024-02-06 10:10:21.458092,-1.237133502960205,8.061707496643066,-0.011964540928602219,0
1320449,2024-02-06 10:10:21.533101,-1.3687434196472168,10.014320373535156,1.3735291957855225,0
1320525,2024-02-06 10:10:21.608178,-1.3519930839538574,9.356270790100098,1.56256902217865,0
1320601,2024-02-06 10:10:21.683709,-1.2730270624160767,9.466344833374023,2.615448474884033,0
1320678,2024-02-06 10:10:21.758829,-1.433351993560791,9.186373710632324,2.256512403488159,0
1320754,2024-02-06 10:10:21.833812,-1.299349069595337,9.169623374938965,3.2902486324310303,0
1320831,2024-02-06 10:10:21.908823,-1.335242748260498,8.614469528198242,2.3570144176483154,0
1320908,2024-02-06 10:10:21.998841,-1.6965718269348145,9.121766090393066,2.964813232421875,0
1320984,2024-02-06 10:10:22.073871,-1.2275618314743042,9.341913223266602,3.2782840728759766,0
1321060,2024-02-06 10:10:22.148835,-0.5575475692749023,9.277304649353027,3.4673237800598145,0
1321137,2024-02-06 10:10:22.223850,-0.4642241597175598,10.842267036437988,2.732701063156128,0
1321213,2024-02-06 10:10:22.298836,-0.22971917688846588,8.41107177734375,1.6319633722305298,0
1321290,2024-02-06 10:10:22.373910,0.0047858161851763725,9.203125,1.6152129173278809,0
1321367,2024-02-06 10:10:22.448827,1.019378900527954,8.722149848937988,0.6891575455665588,0
1321443,2024-02-06 10:10:22.523849,0.708300769329071,10.669977188110352,1.710929274559021,0
1321520,2024-02-06 10:10:22.598811,0.5144752264022827,8.865724563598633,2.536482572555542,0
1321596,2024-02-06 10:10:22.673844,0.765730619430542,8.92554759979248,2.1607959270477295,0
1321672,2024-02-06 10:10:22.763827,0.7418015003204346,9.765458106994629,2.024400234222412,0
1321749,2024-02-06 10:10:22.838588,0.26800569891929626,9.602740287780762,2.136866807937622,0
1321826,2024-02-06 10:10:22.928840,0.17707519233226776,9.803744316101074,2.6034839153289795,0
1321902,2024-02-06 10:10:22.988765,0.19621846079826355,9.954497337341309,2.459909439086914,0
1321979,2024-02-06 10:10:23.063803,-0.509689450263977,9.255768775939941,2.278048515319824,0
1322055,2024-02-06 10:10:23.138618,-0.5814766883850098,9.143301963806152,2.206261157989502,0
1322131,2024-02-06 10:10:23.213808,-1.0265575647354126,9.083478927612305,2.129688262939453,0
1322208,2024-02-06 10:10:23.288793,-1.2921704053878784,9.155266761779785,1.957398772239685,0
1322285,2024-02-06 10:10:23.363653,-1.3137065172195435,9.509416580200195,2.340264081954956,0
1322361,2024-02-06 10:10:23.438077,-1.560176134109497,9.581204414367676,2.2038683891296387,0
1322438,2024-02-06 10:10:23.573837,-1.531461238861084,9.411307334899902,2.8355960845947266,0
1322514,2024-02-06 10:10:23.603073,-1.019378900527954,9.090658187866211,2.4264087677001953,0
1322590,2024-02-06 10:10:23.678102,-0.8853759765625,9.164837837219238,2.732701063156128,0
1322667,2024-02-06 10:10:23.752995,-1.141417145729065,9.174409866333008,2.873882532119751,0
1322744,2024-02-06 10:10:23.828086,-1.1988469362258911,9.20073127746582,2.859525203704834,0
1322820,2024-02-06 10:10:23.903061,-1.2802058458328247,9.475915908813477,2.8643109798431396,0
1322897,2024-02-06 10:10:23.977971,-0.8973405361175537,9.05237102508545,3.926762104034424,0
1322973,2024-02-06 10:10:24.053018,-0.5766908526420593,9.483095169067383,3.512789011001587,0
1323049,2024-02-06 10:10:24.128059,-0.11246667802333832,9.148087501525879,2.9672060012817383,0
1323126,2024-02-06 10:10:24.218165,0.37568655610084534,9.325162887573242,2.615448474884033,0
1323203,2024-02-06 10:10:24.278015,0.36611494421958923,8.841794967651367,2.859525203704834,0
1323279,2024-02-06 10:10:24.368054,0.7848738431930542,8.884867668151855,2.4623024463653564,0
1323356,2024-02-06 10:10:24.443053,1.103130578994751,9.191160202026367,2.3785505294799805,0
1323432,2024-02-06 10:10:24.518061,0.9164838194847107,9.954497337341309,2.1105449199676514,0
1323509,2024-02-06 10:10:24.593030,0.040679436177015305,9.980819702148438,2.7279152870178223,0
1323585,2024-02-06 10:10:24.668212,0.32543548941612244,8.76761531829834,2.079437017440796,0
1323662,2024-02-06 10:10:24.743522,0.1507532149553299,9.39934253692627,2.881061315536499,0
1323739,2024-02-06 10:10:24.818080,-0.461831271648407,9.284482955932617,1.387886643409729,0
1323815,2024-02-06 10:10:24.893064,-1.2490980625152588,9.727170944213867,1.9861136674880981,0
1323891,2024-02-06 10:10:24.982997,-0.9260554313659668,9.234231948852539,1.6487137079238892,0
1323968,2024-02-06 10:10:25.043076,-1.1653462648391724,9.734350204467773,0.6628355383872986,0
1324044,2024-02-06 10:10:25.133071,-1.4955675601959229,10.033463478088379,1.8162171840667725,0
1324121,2024-02-06 10:10:25.207990,-2.1607959270477295,9.846817016601562,1.6750357151031494,0
1324198,2024-02-06 10:10:25.283025,-2.184725046157837,8.982976913452148,1.7133221626281738,0
1324274,2024-02-06 10:10:25.357997,-2.256512403488159,9.497451782226562,2.3163349628448486,0
1324350,2024-02-06 10:10:25.433784,-2.488624334335327,9.150480270385742,2.3570144176483154,0
1324427,2024-02-06 10:10:25.508810,-2.002864122390747,9.119372367858887,2.275655508041382,0
1324503,2024-02-06 10:10:25.583781,-1.6846072673797607,8.600111961364746,2.3306925296783447,0
1324580,2024-02-06 10:10:25.658754,-1.9167194366455078,9.38498592376709,3.479288339614868,0
1324657,2024-02-06 10:10:25.748218,-1.5936768054962158,8.525931358337402,3.182567834854126,0
1324733,2024-02-06 10:10:25.808272,-1.3472073078155518,9.2725191116333,3.3955366611480713,0
1324809,2024-02-06 10:10:25.898729,-0.21775463223457336,9.267732620239258,3.163424491882324,0
1324886,2024-02-06 10:10:25.973809,-0.2321120798587799,9.389771461486816,3.2711052894592285,0
1324962,2024-02-06 10:10:26.048614,0.2225404530763626,8.439786911010742,2.275655508041382,0
1325039,2024-02-06 10:10:26.123828,0.5072965025901794,9.885103225708008,2.2301902770996094,0
1325116,2024-02-06 10:10:26.198812,0.6915504336357117,9.346698760986328,2.0196144580841064,0
1325192,2024-02-06 10:10:26.273574,0.22493335604667664,9.404129028320312,1.643927812576294,0
1325268,2024-02-06 10:10:26.348754,0.6293348073959351,9.751100540161133,1.131845474243164,0
1325345,2024-02-06 10:10:26.423808,-0.6628355383872986,10.258397102355957,1.081594467163086,0
1325421,2024-02-06 10:10:26.513759,-1.0337363481521606,11.103093147277832,0.5288326740264893,0
1325498,2024-02-06 10:10:26.573829,-1.3902796506881714,9.349091529846191,1.0600582361221313,0
1325575,2024-02-06 10:10:26.708761,-1.619998812675476,10.007142066955566,2.0746512413024902,0
1325651,2024-02-06 10:10:26.738498,-1.32806396484375,9.064335823059082,1.7659661769866943,0
1325727,2024-02-06 10:10:26.813795,-1.4740313291549683,8.985369682312012,2.0674726963043213,0
1325804,2024-02-06 10:10:26.888633,-2.03157901763916,9.830066680908203,2.2469406127929688,0
1325880,2024-02-06 10:10:26.963389,-2.325906753540039,9.054763793945312,3.1945323944091797,0
1325957,2024-02-06 10:10:27.053795,-2.4766597747802734,8.86333179473877,2.4981961250305176,0
1326034,2024-02-06 10:10:27.113337,-2.3378713130950928,9.717599868774414,3.175389051437378,0
1326110,2024-02-06 10:10:27.188617,-0.9428057670593262,9.492666244506836,2.9049904346466064,0
1326187,2024-02-06 10:10:27.278764,-0.7059078812599182,9.215088844299316,3.2567479610443115,0
1326263,2024-02-06 10:10:27.353859,0.11964540183544159,8.621647834777832,2.6465563774108887,0
1326339,2024-02-06 10:10:27.443771,0.2895418703556061,9.2725191116333,2.873882532119751,0
1326416,2024-02-06 10:10:27.503590,0.26561281085014343,9.148087501525879,3.244783401489258,0
1326493,2024-02-06 10:10:27.578773,-0.13400284945964813,9.38259220123291,2.6561279296875,0
1326569,2024-02-06 10:10:27.653849,-0.15793193876743317,8.748472213745117,3.4338231086730957,0
1326646,2024-02-06 10:10:27.728278,-0.11246667802333832,9.116979598999023,3.527146577835083,0
1326722,2024-02-06 10:10:27.803802,-0.10528795421123505,8.980584144592285,3.792759418487549,0
1326798,2024-02-06 10:10:27.878035,-0.19861137866973877,9.329948425292969,4.091872692108154,0
1326875,2024-02-06 10:10:27.953825,-0.6508709788322449,11.304098129272461,4.0224785804748535,0
1326952,2024-02-06 10:10:28.028768,-1.0768086910247803,9.710420608520508,2.424015998840332,0
1327028,2024-02-06 10:10:28.118737,-1.4788172245025635,7.427586555480957,0.39004403352737427,0
1327105,2024-02-06 10:10:28.193783,-1.643927812576294,10.387614250183105,1.995685338973999,0
1327181,2024-02-06 10:10:28.268781,-1.904754877090454,9.234231948852539,3.225640058517456,0
1327257,2024-02-06 10:10:28.343683,-1.6056413650512695,8.018634796142578,2.5484471321105957,0
1327334,2024-02-06 10:10:28.418614,-1.6774286031723022,8.561824798583984,3.175389051437378,0
1327411,2024-02-06 10:10:28.493754,-1.7540016174316406,8.659934043884277,3.4960386753082275,0
1327487,2024-02-06 10:10:28.568755,-1.7827165126800537,9.069121360778809,3.603719472885132,0
1327564,2024-02-06 10:10:28.643746,-0.8901618123054504,10.471365928649902,3.907618999481201,0
1327640,2024-02-06 10:10:28.718840,-0.5144752264022827,9.332341194152832,2.699200391769409,0
1327716,2024-02-06 10:10:28.808738,0.540797233581543,7.913347244262695,0.5072965025901794,0
1327793,2024-02-06 10:10:28.883745,0.37568655610084534,9.9832124710083,1.9215052127838135,0
1327870,2024-02-06 10:10:28.958744,0.43790218234062195,9.231839179992676,1.9932924509048462,0
1327946,2024-02-06 10:10:29.033810,0.22014755010604858,8.449358940124512,2.0267932415008545,0
1328023,2024-02-06 10:10:29.108720,-0.06460852175951004,8.425429344177246,0.7561589479446411,0
1328099,2024-02-06 10:10:29.183743,-0.3948298394680023,8.915975570678711,0.6604426503181458,0
1328175,2024-02-06 10:10:29.258745,-0.14357449114322662,8.7843656539917,-1.9932924509048462,0
1328252,2024-02-06 10:10:29.333577,0.2727915346622467,10.222503662109375,-1.4429235458374023,0
1328329,2024-02-06 10:10:29.408759,-0.9739136099815369,10.26078987121582,-3.1251380443573,0
1328405,2024-02-06 10:10:29.483423,-1.3232781887054443,9.078693389892578,-3.9028329849243164,0
1328482,2024-02-06 10:10:29.573771,-0.2416837215423584,8.571396827697754,-3.998549461364746,0
1328558,2024-02-06 10:10:29.663751,-0.7370156645774841,8.07127857208252,-4.402950763702393,0
1328634,2024-02-06 10:10:29.723763,-0.3230426013469696,7.542446136474609,-6.922683238983154,0
1328711,2024-02-06 10:10:29.798709,1.6319633722305298,9.215088844299316,-6.192846298217773,0
1328788,2024-02-06 10:10:29.872986,2.479052782058716,7.633376598358154,-6.927468776702881,0
1328865,2024-02-06 10:10:29.948011,2.7087719440460205,6.893968105316162,-7.836773872375488,0
1328941,2024-02-06 10:10:30.023784,3.273498296737671,6.348385334014893,-7.190688610076904,0
1329017,2024-02-06 10:10:30.098759,3.91479754447937,5.4342942237854,-9.294054985046387,0
1329094,2024-02-06 10:10:30.173340,3.9363338947296143,4.938962459564209,-8.540288925170898,0
1329170,2024-02-06 10:10:30.248742,4.06315803527832,4.197160720825195,-8.06410026550293,0
1329247,2024-02-06 10:10:30.338707,3.7185792922973633,4.5991692543029785,-7.762593746185303,0
1329324,2024-02-06 10:10:30.413748,4.424487113952637,4.221089839935303,-8.049742698669434,0
1329400,2024-02-06 10:10:30.488536,3.823867082595825,4.472345352172852,-9.116979598999023,0
1329476,2024-02-06 10:10:30.563748,4.3957719802856445,3.7114005088806152,-8.597719192504883,0
1329553,2024-02-06 10:10:30.638724,3.9937636852264404,3.921976327896118,-8.961441040039062,0
1329629,2024-02-06 10:10:30.713742,3.8262600898742676,4.118195056915283,-8.731721878051758,0
1329706,2024-02-06 10:10:30.788571,3.8621537685394287,3.977013349533081,-7.963598251342773,0
1329783,2024-02-06 10:10:30.863714,4.084693908691406,4.02726411819458,-8.140673637390137,0
1329859,2024-02-06 10:10:30.938556,3.919583559036255,4.070336818695068,-8.059314727783203,0
1329935,2024-02-06 10:10:31.013760,4.307234764099121,4.321591854095459,-8.138280868530273,0
1330012,2024-02-06 10:10:31.103729,3.6802926063537598,4.594383716583252,-8.24596118927002,0
1330088,2024-02-06 10:10:31.178704,3.907618999481201,4.546525478363037,-8.250746726989746,0
1330165,2024-02-06 10:10:31.253775,3.6420061588287354,4.752315521240234,-8.559432029724121,0
1330242,2024-02-06 10:10:31.328723,3.1658174991607666,5.613762378692627,-8.320141792297363,0
1330318,2024-02-06 10:10:31.403704,3.4960386753082275,6.314884662628174,-7.800880432128906,0
1330394,2024-02-06 10:10:31.479151,2.8547394275665283,6.834145545959473,-8.23878288269043,0
1330471,2024-02-06 10:10:31.553806,2.895418882369995,7.197867393493652,-7.638162612915039,0
1330547,2024-02-06 10:10:31.629186,1.8880045413970947,6.908325672149658,-7.879846572875977,0
1330624,2024-02-06 10:10:31.703773,1.5051392316818237,7.635769844055176,-6.829359531402588,0
1330701,2024-02-06 10:10:31.778714,0.9380199909210205,8.183745384216309,-6.207203388214111,0
1330777,2024-02-06 10:10:31.883464,0.4761887192726135,8.947083473205566,-5.527617931365967,0
1330853,2024-02-06 10:10:31.943084,0.12443122267723083,10.047821044921875,-4.2545905113220215,0
1330930,2024-02-06 10:10:32.018750,0.15314611792564392,10.61733341217041,-3.0174570083618164,0
1331006,2024-02-06 10:10:32.093755,-0.11007377505302429,8.6096830368042,-2.452730894088745,0
1331083,2024-02-06 10:10:32.168722,-0.619763195514679,6.286169528961182,-1.2514909505844116,0
1331160,2024-02-06 10:10:32.243719,-0.8088029623031616,6.613997936248779,0.37807947397232056,0
1331236,2024-02-06 10:10:32.318712,-0.7346227765083313,9.258161544799805,2.0004711151123047,0
1331312,2024-02-06 10:10:32.393012,-0.39722275733947754,9.064335823059082,3.3548572063446045,0
1331389,2024-02-06 10:10:32.468246,-0.5192610621452332,8.853759765625,3.1155662536621094,0
1331465,2024-02-06 10:10:32.543353,-1.2778129577636719,8.978191375732422,3.127530813217163,0
1331541,2024-02-06 10:10:32.633619,-1.7468229532241821,8.59293270111084,3.2782840728759766,0
1331618,2024-02-06 10:10:32.708281,-1.0026284456253052,9.174409866333008,3.7831876277923584,0
1331695,2024-02-06 10:10:32.783592,-1.1174880266189575,8.717364311218262,2.811666965484619,0
1331771,2024-02-06 10:10:32.858244,-0.5790837407112122,9.624276161193848,3.0653152465820312,0
1331848,2024-02-06 10:10:32.933705,-0.5312256217002869,9.320377349853516,3.4338231086730957,0
1331924,2024-02-06 10:10:33.008187,-0.3110780417919159,8.808294296264648,3.1849606037139893,0
1332000,2024-02-06 10:10:33.083049,0.588655412197113,8.973404884338379,3.2687125205993652,0
1332077,2024-02-06 10:10:33.158251,0.9164838194847107,9.13133716583252,2.5053746700286865,0
1332154,2024-02-06 10:10:33.233670,1.0624512434005737,9.207910537719727,3.639613151550293,0
1332230,2024-02-06 10:10:33.308715,0.8207674622535706,9.99996280670166,3.3189635276794434,0
1332307,2024-02-06 10:10:33.398681,0.6508709788322449,9.023656845092773,2.7446656227111816,0
1332383,2024-02-06 10:10:33.473732,0.9499844908714294,9.20073127746582,2.859525203704834,0
1332459,2024-02-06 10:10:33.548676,0.5719050168991089,8.659934043884277,2.7518444061279297,0
1332536,2024-02-06 10:10:33.623716,0.45943835377693176,8.961441040039062,4.419701099395752,0
1332613,2024-02-06 10:10:33.698673,0.9619490504264832,9.023656845092773,3.548682689666748,0
1332690,2024-02-06 10:10:33.773706,1.012200117111206,8.963833808898926,3.5367181301116943,0
1332766,2024-02-06 10:10:33.848717,0.5455830693244934,8.963833808898926,4.536953926086426,0
1332842,2024-02-06 10:10:33.923745,0.37807947397232056,8.300997734069824,4.197160720825195,0
1332919,2024-02-06 10:10:33.998654,-0.4139730930328369,8.463715553283691,4.065550804138184,0
1332996,2024-02-06 10:10:34.073704,-0.27757734060287476,9.270126342773438,4.400557994842529,0
1333072,2024-02-06 10:10:34.162905,-0.8088029623031616,9.023656845092773,3.6778998374938965,0
1333149,2024-02-06 10:10:34.238381,-1.2514909505844116,9.310805320739746,3.709007501602173,0
1333225,2024-02-06 10:10:34.313725,-1.5673547983169556,8.741292953491211,3.94111967086792,0
1333301,2024-02-06 10:10:34.388681,-1.2634555101394653,8.202888488769531,4.012907028198242,0
1333378,2024-02-06 10:10:34.463718,-1.1150951385498047,8.415857315063477,3.598933696746826,0
1333455,2024-02-06 10:10:34.538565,-1.4812101125717163,8.3871431350708,4.788208961486816,0
1333531,2024-02-06 10:10:34.613669,-1.3998512029647827,9.20073127746582,4.754708290100098,0
1333608,2024-02-06 10:10:34.688691,-0.6891575455665588,11.971718788146973,4.781030178070068,0
1333684,2024-02-06 10:10:34.763677,-0.6293348073959351,7.875060558319092,3.6300415992736816,0
1333760,2024-02-06 10:10:34.838551,-0.5742979645729065,7.956419467926025,3.809509754180908,0
1333837,2024-02-06 10:10:34.927985,-0.1603248417377472,8.49960994720459,2.5029819011688232,0
1333914,2024-02-06 10:10:35.003689,-0.45943835377693176,9.633848190307617,4.807352542877197,0
1333990,2024-02-06 10:10:35.078677,-0.7322298884391785,8.147851943969727,2.881061315536499,0
1334067,2024-02-06 10:10:35.153692,-0.7944455146789551,8.731721878051758,3.2854628562927246,0
1334143,2024-02-06 10:10:35.228695,-0.06221561133861542,9.12415885925293,3.364428758621216,0
1334219,2024-02-06 10:10:35.303723,-0.15314611792564392,9.416092872619629,3.0748867988586426,0
1334296,2024-02-06 10:10:35.378709,-0.7322298884391785,9.784601211547852,3.6085054874420166,0
1334373,2024-02-06 10:10:35.453683,-1.4524952173233032,8.56900405883789,2.0291860103607178,0
1334449,2024-02-06 10:10:35.528683,-1.679821491241455,9.928175926208496,0.1914326548576355,0
1334526,2024-02-06 10:10:35.603705,-1.6606782674789429,9.112194061279297,2.507767677307129,0
1334602,2024-02-06 10:10:35.693659,-2.311549186706543,9.995177268981934,2.895418882369995,0
1334678,2024-02-06 10:10:35.768654,-2.6680924892425537,9.37541389465332,3.113173484802246,0
1334755,2024-02-06 10:10:35.843653,-2.68245005607605,8.437394142150879,3.378786325454712,0
1334832,2024-02-06 10:10:35.918665,-2.8978116512298584,8.722149848937988,3.254354953765869,0
1334908,2024-02-06 10:10:35.993674,-2.172760486602783,10.033463478088379,3.80233097076416,0
1334985,2024-02-06 10:10:36.068778,-0.4235447347164154,8.621647834777832,3.8980472087860107,0
1335061,2024-02-06 10:10:36.143674,-0.7609447836875916,8.15024471282959,4.144516944885254,0
1335137,2024-02-06 10:10:36.218647,0.32543548941612244,8.095208168029785,3.8884756565093994,0
1335214,2024-02-06 10:10:36.293506,0.39961564540863037,8.49721622467041,4.517810344696045,0
1335291,2024-02-06 10:10:36.368677,0.7250511646270752,8.423036575317383,4.460380554199219,0
1335367,2024-02-06 10:10:36.458634,0.5814766883850098,8.50678825378418,4.56566858291626,0
1335444,2024-02-06 10:10:36.533645,0.6412993669509888,8.128708839416504,4.268948078155518,0
1335520,2024-02-06 10:10:36.608671,0.4115802049636841,8.77479362487793,4.38380765914917,0
1335596,2024-02-06 10:10:36.683317,0.007178724277764559,8.798723220825195,4.7738518714904785,0
1335673,2024-02-06 10:10:36.758673,-0.4929390549659729,12.04829216003418,3.5151820182800293,0
1335750,2024-02-06 10:10:36.833693,-1.1222739219665527,9.681706428527832,1.9382555484771729,0
1335826,2024-02-06 10:10:36.908671,-1.1892752647399902,8.018634796142578,0.44986671209335327,0
1335903,2024-02-06 10:10:36.983725,-0.983485221862793,10.423507690429688,2.0890088081359863,0
1335979,2024-02-06 10:10:37.058656,-1.8281817436218262,9.040407180786133,2.242154836654663,0
1336055,2024-02-06 10:10:37.133707,-1.2730270624160767,8.643183708190918,1.9765421152114868,0
1336132,2024-02-06 10:10:37.208650,-1.2634555101394653,9.042799949645996,1.8592896461486816,0
1336208,2024-02-06 10:10:37.298700,-1.103130578994751,9.997570037841797,0.6245490312576294,0
1336285,2024-02-06 10:10:37.373685,-1.139024257659912,9.081086158752441,1.718108057975769,0
1336362,2024-02-06 10:10:37.448695,-0.5360113978385925,10.34693431854248,2.2804415225982666,0
1336438,2024-02-06 10:10:37.523689,1.0576653480529785,9.164837837219238,0.1411815732717514,0
1336515,2024-02-06 10:10:37.598543,1.8497179746627808,9.624276161193848,-0.4044014811515808,0
1336591,2024-02-06 10:10:37.673678,2.1942968368530273,9.772636413574219,-0.5790837407112122,0
