timestamp,timestamp_local,ax,ay,az,fall_state
3206143,2024-02-06 10:41:47.209513,0.3804723918437958,9.337127685546877,2.481445789337158,0
3206219,2024-02-06 10:41:47.284297,0.3493645787239074,9.349091529846191,2.5245180130004883,0
3206295,2024-02-06 10:41:47.359315,0.3924369215965271,9.349091529846191,2.4981961250305176,0
3206372,2024-02-06 10:41:47.434309,0.3421858549118042,9.327555656433104,2.550840139389038,0
3206449,2024-02-06 10:41:47.509304,0.3756865561008453,9.356270790100098,2.541268348693848,0
3206525,2024-02-06 10:41:47.584271,0.2680056989192962,9.475915908813477,2.232583284378052,0
3206602,2024-02-06 10:41:47.673612,0.5072965025901794,9.554882049560549,2.184725046157837,0
3206678,2024-02-06 10:41:47.749190,0.7968384027481079,8.930333137512207,2.4623024463653564,0
3206754,2024-02-06 10:41:47.823690,0.667621374130249,9.894675254821776,2.467088222503662,0
3206831,2024-02-06 10:41:47.898800,0.8877689242362976,8.911190032958984,2.871489763259888,0
3206908,2024-02-06 10:41:47.988741,0.3565433025360107,9.21748161315918,2.495803117752075,0
3206984,2024-02-06 10:41:48.094319,0.1196454018354415,9.667348861694336,2.311549186706543,0
3207061,2024-02-06 10:41:48.123922,-0.9667348861694336,8.973404884338379,1.928683876991272,0
3207137,2024-02-06 10:41:48.199005,-2.5029819011688232,9.195945739746094,1.263455510139465,0
3207213,2024-02-06 10:41:48.274945,-2.6513421535491943,9.882710456848145,1.3926725387573242,0
3207290,2024-02-06 10:41:48.348669,-2.5891265869140625,9.65299129486084,1.801859736442566,0
3207367,2024-02-06 10:41:48.438705,-2.373764753341675,9.27969741821289,2.1129379272460938,0
3207443,2024-02-06 10:41:48.514189,-2.017221450805664,9.514202117919922,1.4836030006408691,0
3207520,2024-02-06 10:41:48.589287,-1.6774286031723022,9.282090187072754,1.7827165126800537,0
3207596,2024-02-06 10:41:48.663694,-2.3976938724517822,9.090658187866213,1.6654640436172483,0
3207673,2024-02-06 10:41:48.738557,-1.8640754222869875,9.959283828735352,1.4094228744506836,0
3207750,2024-02-06 10:41:48.813600,-1.5099250078201294,8.808294296264648,1.1509888172149658,0
3207826,2024-02-06 10:41:48.904276,0.3182567656040191,11.70849895477295,0.4450809061527252,0
3207903,2024-02-06 10:41:48.963789,0.6819788217544556,10.06935691833496,1.201239824295044,0
3207979,2024-02-06 10:41:49.039100,0.9930568337440492,9.595561027526855,1.746822953224182,0
3208055,2024-02-06 10:41:49.114278,0.6077986359596252,9.009299278259276,1.019378900527954,0
3208132,2024-02-06 10:41:49.204356,0.7609447836875916,9.18398094177246,0.7800880670547485,0
3208208,2024-02-06 10:41:49.279305,-0.2321120798587799,9.751100540161133,1.710929274559021,0
3208285,2024-02-06 10:41:49.354273,0.2871489822864532,9.753493309020996,2.368978977203369,0
3208362,2024-02-06 10:41:49.429292,-0.1244312226772308,9.04519271850586,2.2086541652679443,0
3208438,2024-02-06 10:41:49.504261,-0.3924369215965271,8.966226577758789,2.0411505699157715,0
3208514,2024-02-06 10:41:49.579292,-0.0119645409286022,9.612311363220217,2.1799392700195312,0
3208591,2024-02-06 10:41:49.653675,-0.5144752264022827,9.674527168273926,3.189746379852295,0
3208667,2024-02-06 10:41:49.729266,-1.3519930839538574,13.242353439331056,1.770751953125,0
3208744,2024-02-06 10:41:49.804299,-1.1629533767700195,7.147616386413574,-2.055508136749268,0
3208821,2024-02-06 10:41:49.879349,-1.7875022888183594,10.933197021484377,1.4357448816299438,0
3208897,2024-02-06 10:41:49.969298,-1.2443121671676636,8.899225234985352,2.9121692180633545,0
3208973,2024-02-06 10:41:50.044250,-1.0839873552322388,8.590539932250977,2.053115129470825,0
3209050,2024-02-06 10:41:50.118978,-1.1581674814224243,9.038013458251951,2.1057591438293457,0
3209126,2024-02-06 10:41:50.194358,-0.8805902004241943,9.030835151672363,2.7805593013763428,0
3209203,2024-02-06 10:41:50.268956,-1.148595929145813,9.40891456604004,3.273498296737671,0
3209280,2024-02-06 10:41:50.343770,-0.184253916144371,9.849209785461426,4.278519630432129,0
3209356,2024-02-06 10:41:50.419284,-1.770751953125,12.187081336975098,3.98419189453125,0
3209432,2024-02-06 10:41:50.494153,0.4785816073417663,7.03993558883667,1.1509888172149658,0
3209509,2024-02-06 10:41:50.569129,-0.0143574485555291,9.648205757141112,1.5290682315826416,0
3209585,2024-02-06 10:41:50.643544,-0.4283305406570434,9.806137084960938,3.1586387157440186,0
3209662,2024-02-06 10:41:50.733972,0.1770751923322677,7.817630767822266,2.340264081954956,0
3209739,2024-02-06 10:41:50.809268,0.1603248417377472,8.920761108398438,3.1442811489105225,0
3209815,2024-02-06 10:41:50.883947,-0.0263219885528087,9.377806663513184,3.5510756969451904,0
3209891,2024-02-06 10:41:50.959269,-0.9930568337440492,8.87051010131836,3.5223608016967773,0
3209968,2024-02-06 10:41:51.033743,-0.6030128598213196,9.377806663513184,3.393143653869629,0
3210044,2024-02-06 10:41:51.108976,-1.299349069595337,11.63192653656006,3.6156840324401855,0
3210121,2024-02-06 10:41:51.183696,-1.2132043838500977,10.57186794281006,2.395301103591919,0
3210198,2024-02-06 10:41:51.258928,-1.6582852602005005,7.817630767822266,0.0717872455716133,0
3210274,2024-02-06 10:41:51.333767,-1.7324655055999756,10.038249015808104,2.380943536758423,0
3210350,2024-02-06 10:41:51.409280,-1.4883887767791748,8.813080787658691,2.167974710464477,0
3210427,2024-02-06 10:41:51.499090,-0.9284483194351196,9.01169204711914,2.8260245323181152,0
3210503,2024-02-06 10:41:51.574305,-1.296956181526184,8.781972885131836,2.72552227973938,0
3210580,2024-02-06 10:41:51.649609,-1.098344802856445,8.68147087097168,2.938491106033325,0
3210657,2024-02-06 10:41:51.724699,-1.3543859720230105,9.641026496887209,3.54150390625,0
3210733,2024-02-06 10:41:51.799744,-1.7875022888183594,9.664956092834473,4.903068542480469,0
3210810,2024-02-06 10:41:51.874742,-1.2275618314743042,11.308883666992188,4.422094345092773,0
3210886,2024-02-06 10:41:51.949313,1.2849916219711304,8.145459175109863,1.079201579093933,0
3210962,2024-02-06 10:41:52.024243,0.7681235074996948,8.518753051757812,1.0098072290420532,0
3211039,2024-02-06 10:41:52.099304,0.9786993861198424,10.753728866577148,2.184725046157837,0
3211116,2024-02-06 10:41:52.174250,1.1629533767700195,9.84203052520752,2.471873998641968,0
3211192,2024-02-06 10:41:52.264349,0.6436922550201416,8.413464546203613,1.916719436645508,0
3211269,2024-02-06 10:41:52.339304,0.4642241597175598,9.317984580993652,1.9621846675872805,0
3211345,2024-02-06 10:41:52.414111,-0.363722026348114,10.60058307647705,2.1392598152160645,0
3211421,2024-02-06 10:41:52.489258,-0.7705163955688477,8.60250473022461,1.560176134109497,0
3211498,2024-02-06 10:41:52.564275,-0.2871489822864532,9.169623374938965,1.8257888555526731,0
3211575,2024-02-06 10:41:52.639071,-0.8901618123054504,9.428057670593262,1.7300724983215332,0
3211651,2024-02-06 10:41:52.714270,-1.25866961479187,11.244275093078612,1.9262909889221191,0
3211728,2024-02-06 10:41:52.789279,-1.1988469362258911,8.631219863891602,1.9813278913497925,0
3211804,2024-02-06 10:41:52.864284,-1.3304568529129028,9.136122703552246,1.3639576435089111,0
3211880,2024-02-06 10:41:52.939250,-1.6367491483688354,10.031070709228516,1.7587873935699463,0
3211957,2024-02-06 10:41:53.029042,-0.3756865561008453,8.7843656539917,1.0552724599838257,0
3212034,2024-02-06 10:41:53.104066,0.6963362693786621,10.296683311462402,1.8999689817428589,0
3212110,2024-02-06 10:41:53.179278,0.8470894694328308,10.715442657470703,3.046171903610229,0
3212187,2024-02-06 10:41:53.254309,1.110309362411499,9.0284423828125,2.58673357963562,0
3212263,2024-02-06 10:41:53.344287,1.0145930051803589,9.23662567138672,2.754237174987793,0
3212339,2024-02-06 10:41:53.404283,0.5862624645233154,8.662327766418457,2.115330696105957,0
3212416,2024-02-06 10:41:53.479233,0.8638398051261902,9.13133716583252,2.7853450775146484,0
3212493,2024-02-06 10:41:53.554215,1.177310824394226,9.176802635192873,2.940884113311768,0
3212569,2024-02-06 10:41:53.628553,1.1916682720184326,9.01169204711914,2.622627258300781,0
3212646,2024-02-06 10:41:53.703556,0.8805902004241943,9.03562068939209,2.620234251022339,0
3212722,2024-02-06 10:41:53.793564,0.5360113978385925,9.198338508605955,3.0748867988586426,0
3212798,2024-02-06 10:41:53.869242,-0.0693943351507186,9.564454078674316,3.26392674446106,0
3212875,2024-02-06 10:41:53.959264,-0.600619912147522,9.059550285339355,3.1849606037139893,0
3212952,2024-02-06 10:41:54.018526,-1.557783126831055,8.564218521118164,2.859525203704834,0
3213028,2024-02-06 10:41:54.108515,-1.170132040977478,9.265339851379396,2.706378936767578,0
3213105,2024-02-06 10:41:54.169276,-1.4524952173233032,9.047585487365724,2.663306713104248,0
3213181,2024-02-06 10:41:54.259264,-1.6391420364379885,9.430450439453123,2.9887421131134038,0
3213257,2024-02-06 10:41:54.319232,-1.651106595993042,8.590539932250977,2.837989091873169,0
3213334,2024-02-06 10:41:54.394243,-1.718108057975769,8.978191375732422,2.550840139389038,0
3213411,2024-02-06 10:41:54.469282,-1.462066888809204,8.985369682312012,3.141888380050659,0
3213488,2024-02-06 10:41:54.559245,-1.2275618314743042,8.971012115478516,2.739879846572876,0
3213564,2024-02-06 10:41:54.633957,-1.7635732889175415,8.930333137512207,2.6896286010742188,0
3213640,2024-02-06 10:41:54.709244,-1.0409150123596191,8.839402198791504,2.467088222503662,0
3213717,2024-02-06 10:41:54.784023,-1.0098072290420532,8.265104293823242,2.4072654247283936,0
3213793,2024-02-06 10:41:54.859252,-1.1509888172149658,7.166759967803955,1.0289504528045654,0
3213870,2024-02-06 10:41:54.934195,0.4283305406570434,6.757572650909424,-0.3062922358512878,0
3213947,2024-02-06 10:41:55.009253,-0.4402951002120971,7.097365379333496,-1.208418607711792,1
3214023,2024-02-06 10:41:55.084219,0.6341206431388855,9.798958778381348,-2.0004711151123047,1
3214099,2024-02-06 10:41:55.159233,0.7872667908668518,8.502002716064453,-4.534560680389404,1
3214176,2024-02-06 10:41:55.234202,-0.339792937040329,8.444572448730469,-4.256983280181885,1
3214252,2024-02-06 10:41:55.308520,0.8279461860656738,8.50678825378418,-5.769301414489746,1
3214329,2024-02-06 10:41:55.399214,-0.7202653288841248,7.595090389251709,-6.690570831298828,1
3214406,2024-02-06 10:41:55.474225,-0.7011220455169678,6.29334831237793,-7.831988334655762,1
3214482,2024-02-06 10:41:55.549291,-3.414679765701294,6.712107181549072,-8.370392799377441,1
3214558,2024-02-06 10:41:55.623469,-1.2849916219711304,5.123216152191162,-11.263418197631836,1
3214635,2024-02-06 10:41:55.698656,-3.196925163269043,7.336656093597412,-8.470894813537598,1
3214711,2024-02-06 10:41:55.774241,-0.600619912147522,5.329006195068359,-10.775264739990234,1
3214788,2024-02-06 10:41:55.849149,-4.651813507080078,-2.2804415225982666,-14.871923446655272,1
3214865,2024-02-06 10:41:55.923709,4.1564812660217285,-0.5240468978881836,-11.246667861938477,1
3214941,2024-02-06 10:41:55.998728,-1.907147765159607,1.5506044626235962,-11.897539138793944,1
3215017,2024-02-06 10:41:56.088481,1.5338541269302368,3.0030996799468994,-9.44480800628662,1
3215094,2024-02-06 10:41:56.163615,1.524282455444336,4.993999004364014,-10.114822387695312,1
3215170,2024-02-06 10:41:56.238647,-1.612820029258728,4.881532669067383,-8.51396656036377,1
3215247,2024-02-06 10:41:56.314007,0.2727915346622467,7.427586555480957,-6.846109867095947,1
3215324,2024-02-06 10:41:56.389021,0.4450809061527252,6.070807933807373,-10.717835426330566,1
3215400,2024-02-06 10:41:56.463982,0.7537660598754883,7.573554039001465,-7.008827686309815,1
3215476,2024-02-06 10:41:56.538993,2.1033661365509038,6.767144203186035,-7.331870555877685,1
3215553,2024-02-06 10:41:56.613633,0.600619912147522,6.67621374130249,-7.896596908569336,1
3215629,2024-02-06 10:41:56.689224,-0.3038993179798126,6.949005126953125,-8.33210563659668,1
3215706,2024-02-06 10:41:56.764133,0.6700142621994019,4.067943572998047,-10.25121784210205,1
3215783,2024-02-06 10:41:56.853688,0.7035149931907654,1.6080342531204224,-10.34693431854248,1
3215859,2024-02-06 10:41:56.929215,0.7729093432426453,0.6054057478904724,-10.433079719543455,1
3215936,2024-02-06 10:41:57.003814,0.6508709788322449,0.4881532490253448,-10.10285758972168,1
3216012,2024-02-06 10:41:57.078948,2.167974710464477,-1.115095138549805,-9.822887420654297,1
3216088,2024-02-06 10:41:57.154219,0.5934411883354187,0.4331163763999939,-10.062178611755373,1
3216165,2024-02-06 10:41:57.229259,0.5503688454627991,0.4929390549659729,-9.973641395568848,1
3216242,2024-02-06 10:41:57.319230,0.5599405169487,0.4546525478363037,-10.026285171508787,1
3216318,2024-02-06 10:41:57.379283,0.4785816073417663,0.4379021823406219,-10.07892894744873,1
3216395,2024-02-06 10:41:57.454223,0.4522596299648285,0.3541503846645355,-10.0885009765625,1
3216471,2024-02-06 10:41:57.529291,0.44268798828125,0.3230426013469696,-10.066964149475098,1
3216547,2024-02-06 10:41:57.619212,0.4402951002120971,0.2727915346622467,-10.148323059082031,1
3216624,2024-02-06 10:41:57.694077,0.4785816073417663,0.3038993179798126,-10.10285758972168,1
3216701,2024-02-06 10:41:57.769228,0.4857603311538696,0.3661149442195892,-10.081321716308594,1
3216777,2024-02-06 10:41:57.844225,0.5120823383331299,0.3900440335273742,-10.059785842895508,1
3216854,2024-02-06 10:41:57.919215,0.5049036145210266,0.3493645787239074,-10.162680625915527,1
3216930,2024-02-06 10:41:57.994253,0.4259376525878906,0.3852581977844238,-9.980819702148438,1
3217006,2024-02-06 10:41:58.069214,0.4187589287757873,0.3158638775348663,-10.107644081115724,1
3217083,2024-02-06 10:41:58.144250,0.4522596299648285,0.2919347882270813,-10.136358261108398,1
3217160,2024-02-06 10:41:58.219198,0.667621374130249,0.0861446931958198,-13.799901008605955,1
3217236,2024-02-06 10:41:58.294213,1.7348583936691284,3.323749303817749,-7.094972610473633,1
3217313,2024-02-06 10:41:58.384214,0.6939433217048645,5.2452545166015625,-7.420407772064209,1
3217389,2024-02-06 10:41:58.459211,1.904754877090454,7.099758148193359,-9.612311363220217,1
3217465,2024-02-06 10:41:58.534172,1.5649619102478027,6.913111686706543,-8.006670951843262,1
3217542,2024-02-06 10:41:58.609069,0.7130866050720215,7.224189758300781,-7.896596908569336,1
3217619,2024-02-06 10:41:58.684148,0.4714028835296631,6.850895881652832,-7.595090389251709,1
3217695,2024-02-06 10:41:58.758499,1.0863802433013916,8.109565734863281,-7.398871898651123,1
3217772,2024-02-06 10:41:58.833466,0.5312256217002869,6.412993907928467,-6.7408223152160645,1
3217848,2024-02-06 10:41:58.909211,0.5479759573936462,7.571161270141602,-6.659463405609131,1
3217924,2024-02-06 10:41:58.984119,0.9380199909210204,6.71928596496582,-7.506552696228027,1
3218001,2024-02-06 10:41:59.074215,0.5072965025901794,6.817395210266113,-6.326848983764648,1
3218078,2024-02-06 10:41:59.134172,-0.8351249098777771,5.580261707305908,-6.460851669311523,1
3218154,2024-02-06 10:41:59.224181,0.5503688454627991,5.960733890533447,-6.47520923614502,1
3218231,2024-02-06 10:41:59.299099,0.4498667120933532,5.800409317016602,-8.042564392089844,1
3218307,2024-02-06 10:41:59.374214,1.0098072290420532,4.714028835296631,-7.82959508895874,1
3218383,2024-02-06 10:41:59.449183,0.4067943692207336,4.771458625793457,-7.906168460845947,1
3218460,2024-02-06 10:41:59.524205,-0.3421858549118042,4.381414890289307,-7.714735507965088,1
3218537,2024-02-06 10:41:59.599201,0.5001177787780762,4.230661392211914,-8.805901527404785,1
3218614,2024-02-06 10:41:59.673526,-0.5455830693244934,4.417308330535889,-9.581204414367676,1
3218690,2024-02-06 10:41:59.749160,2.1655819416046143,4.833674430847168,-9.327555656433104,1
3218766,2024-02-06 10:41:59.839037,0.6125844717025757,4.405344009399414,-7.575946807861328,1
3218843,2024-02-06 10:41:59.899290,3.225640058517456,2.790130853652954,-9.145694732666016,1
3218919,2024-02-06 10:41:59.988471,2.002864122390747,2.2876200675964355,-8.93990421295166,0
3218996,2024-02-06 10:42:00.064289,2.218225717544556,1.2060257196426392,-8.042564392089844,0
3219073,2024-02-06 10:42:00.139211,5.675978183746338,-0.3541503846645355,-10.91883945465088,0
3219149,2024-02-06 10:42:00.214205,-1.05048668384552,2.2804415225982666,-9.203125,0
3219225,2024-02-06 10:42:00.289176,0.3900440335273742,1.9262909889221191,-10.480937004089355,0
3219302,2024-02-06 10:42:00.364125,0.1579319387674331,2.814059972763061,-10.222503662109377,0
3219378,2024-02-06 10:42:00.438435,0.8088029623031616,3.646791934967041,-11.816180229187012,0
3219455,2024-02-06 10:42:00.514080,-1.514710783958435,5.874589443206787,-11.765929222106934,0
3219532,2024-02-06 10:42:00.604066,-0.6221560835838318,8.107172966003418,-5.759729862213135,0
3219608,2024-02-06 10:42:00.664281,-0.6915504336357117,9.65299129486084,-5.601798057556152,0
3219684,2024-02-06 10:42:00.754165,-3.2854628562927246,8.889653205871582,-5.939198017120361,0
3219761,2024-02-06 10:42:00.829148,-3.8765110969543457,8.533110618591309,-4.24501895904541,0
3219837,2024-02-06 10:42:00.904181,-3.831045866012573,8.109565734863281,-3.900440216064453,0
3219914,2024-02-06 10:42:00.978553,-3.053350687026977,7.733879089355469,-3.019850015640259,0
3219991,2024-02-06 10:42:01.054166,-2.713557720184326,8.822651863098145,-1.6917860507965088,0
3220067,2024-02-06 10:42:01.128928,-2.053115129470825,7.269654750823975,-0.12921704351902,0
3220143,2024-02-06 10:42:01.203990,0.1316099464893341,7.2576904296875,0.6963362693786621,0
3220220,2024-02-06 10:42:01.278985,0.2105759084224701,7.779344081878662,0.3517574965953827,0
3220296,2024-02-06 10:42:01.369198,-1.966970443725586,14.78338623046875,-1.7444299459457395,0
3220373,2024-02-06 10:42:01.429042,2.4503378868103027,10.705870628356934,1.6391420364379885,0
3220450,2024-02-06 10:42:01.519153,0.8829830884933472,9.734350204467772,-1.4309589862823486,0
3220526,2024-02-06 10:42:01.594161,0.4044014811515808,11.4404935836792,1.0863802433013916,0
3220602,2024-02-06 10:42:01.669165,2.3522286415100098,10.662798881530762,1.9023619890213013,0
3220679,2024-02-06 10:42:01.744193,2.3426570892333984,11.194024085998535,2.0411505699157715,0
3220755,2024-02-06 10:42:01.834162,1.8425391912460327,10.480937004089355,1.7324655055999756,0
3220832,2024-02-06 10:42:01.894233,1.42378032207489,8.659934043884277,-0.2464695274829864,0
3220909,2024-02-06 10:42:01.969181,2.431194543838501,7.709949970245361,-2.433587551116944,0
3220985,2024-02-06 10:42:02.044158,1.84014630317688,8.540288925170898,-0.6054057478904724,0
3221061,2024-02-06 10:42:02.134134,1.1677391529083252,7.975562572479248,-1.0337363481521606,0
3221138,2024-02-06 10:42:02.209180,1.359171748161316,8.650362968444824,-0.7489802241325378,0
3221214,2024-02-06 10:42:02.284129,1.718108057975769,8.872902870178223,0.0047858161851763,0
3221291,2024-02-06 10:42:02.359023,1.39745831489563,8.882474899291992,0.2632198929786682,0
3221368,2024-02-06 10:42:02.434140,0.7872667908668518,9.21030330657959,1.39745831489563,0
3221444,2024-02-06 10:42:02.509027,0.1507532149553299,8.882474899291992,2.0291860103607178,0
3221520,2024-02-06 10:42:02.584115,1.957398772239685,10.378042221069336,0.6077986359596252,0
3221597,2024-02-06 10:42:02.659016,-1.761180400848389,11.481172561645508,0.7441943883895874,0
3221673,2024-02-06 10:42:02.734146,-2.0411505699157715,10.399578094482422,-1.2658483982086182,0
3221750,2024-02-06 10:42:02.809164,-0.8638398051261902,9.696063995361328,0.9763064980506896,0
3221827,2024-02-06 10:42:02.899011,-1.5482115745544434,8.33449935913086,0.8734114766120911,0
3221903,2024-02-06 10:42:02.974170,-1.7898952960968018,8.080850601196289,1.4453164339065552,0
3221980,2024-02-06 10:42:03.048835,-1.9478272199630735,8.66472053527832,2.294798851013184,0
3222056,2024-02-06 10:42:03.124024,-1.3232781887054443,8.753257751464844,2.9911351203918457,0
3222132,2024-02-06 10:42:03.199039,-1.6774286031723022,8.686256408691406,3.2136754989624023,0
3222209,2024-02-06 10:42:03.274145,-1.584105134010315,9.179195404052734,4.510631561279297,0
3222286,2024-02-06 10:42:03.348985,-0.9930568337440492,12.976740837097168,4.443630218505859,0
3222362,2024-02-06 10:42:03.424162,-0.3732936680316925,8.164602279663086,2.3306925296783447,0
3222439,2024-02-06 10:42:03.499202,-1.5864980220794678,7.729093074798584,2.270869731903076,0
3222515,2024-02-06 10:42:03.574202,-0.9212695956230164,9.786993980407717,3.1777820587158203,0
3222591,2024-02-06 10:42:03.649183,-0.952377438545227,9.172017097473145,3.2017109394073486,0
3222668,2024-02-06 10:42:03.723371,-0.8734114766120911,8.406286239624023,2.4407663345336914,0
3222745,2024-02-06 10:42:03.813476,-0.5049036145210266,8.982976913452148,2.340264081954956,0
3222821,2024-02-06 10:42:03.889170,0.1914326548576355,9.047585487365724,3.4098939895629883,0
3222898,2024-02-06 10:42:03.963663,0.205790102481842,9.394556999206545,3.6850783824920654,0
3222974,2024-02-06 10:42:04.039140,0.2823631465435028,9.449594497680664,3.486467123031616,0
3223050,2024-02-06 10:42:04.113449,-0.4187589287757873,10.483330726623535,3.3069989681243896,0
3223127,2024-02-06 10:42:04.188418,-0.588655412197113,9.076300621032717,2.424015998840332,0
3223204,2024-02-06 10:42:04.264152,-2.163188934326172,8.478073120117188,2.1129379272460938,0
3223280,2024-02-06 10:42:04.339158,-1.706143498420715,9.04519271850586,1.462066888809204,0
3223357,2024-02-06 10:42:04.429158,-1.5099250078201294,9.956890106201172,2.8212387561798096,0
3223433,2024-02-06 10:42:04.489163,-1.3926725387573242,9.47830867767334,2.2301902770996094,0
3223509,2024-02-06 10:42:04.579187,-1.524282455444336,8.77718734741211,2.010042905807495,0
3223586,2024-02-06 10:42:04.654158,-1.318492412567139,7.779344081878662,1.742037057876587,0
3223663,2024-02-06 10:42:04.729591,-1.110309362411499,7.200260639190674,2.5604116916656494,0
3223739,2024-02-06 10:42:04.804629,-0.8877689242362976,7.0854010581970215,2.2804415225982666,0
3223816,2024-02-06 10:42:04.879609,-1.072022795677185,6.803037643432617,1.356778860092163,0
3223892,2024-02-06 10:42:04.969160,-0.9093050956726074,7.707557201385498,2.782952070236206,0
3223968,2024-02-06 10:42:05.029159,-1.6271774768829346,9.21030330657959,3.7903664112091056,0
3224045,2024-02-06 10:42:05.103952,-2.0626866817474365,9.734350204467772,3.960262775421143,0
3224122,2024-02-06 10:42:05.193809,-3.4170727729797363,10.043035507202148,4.364664554595947,0
3224198,2024-02-06 10:42:05.268924,-4.627884387969971,8.284247398376465,5.099287033081055,0
3224275,2024-02-06 10:42:05.344193,-3.548682689666748,4.290484428405762,4.230661392211914,0
3224351,2024-02-06 10:42:05.418928,1.837753415107727,26.93218040466309,-17.796056747436523,0
3224427,2024-02-06 10:42:05.493949,-0.9140908718109132,12.062649726867676,-1.8951832056045528,1
3224504,2024-02-06 10:42:05.568750,6.604426383972168,7.628591060638428,-3.9315478801727295,1
3224581,2024-02-06 10:42:05.644122,-2.297191858291626,12.04829216003418,-0.3254354894161224,1
3224657,2024-02-06 10:42:05.719124,1.4716384410858154,7.317512989044189,-3.247176170349121,1
3224734,2024-02-06 10:42:05.793483,-1.9191123247146609,3.287855625152588,-2.7374868392944336,1
3224810,2024-02-06 10:42:05.869126,6.731250286102295,7.173938274383545,-6.865253448486328,1
3224886,2024-02-06 10:42:05.959104,5.417543888092041,7.741057872772217,-13.632397651672363,1
3224963,2024-02-06 10:42:06.034097,3.3835721015930176,8.329712867736816,-11.722856521606444,1
3225040,2024-02-06 10:42:06.109087,7.997098922729492,5.199789047241211,-11.359134674072266,1
3225116,2024-02-06 10:42:06.183417,3.3046059608459477,4.649420261383057,-6.616390705108643,1
3225193,2024-02-06 10:42:06.274138,20.78958511352539,3.364428758621216,-2.115330696105957,1
3225269,2024-02-06 10:42:06.334114,14.099014282226562,-0.8734114766120911,-1.9430413246154783,1
3225345,2024-02-06 10:42:06.408692,7.071043491363525,1.115095138549805,0.339792937040329,1
3225422,2024-02-06 10:42:06.483939,7.652520179748535,0.1627177447080612,0.7322298884391785,1
3225499,2024-02-06 10:42:06.558675,9.27969741821289,1.3448143005371094,-0.2680056989192962,1
3225575,2024-02-06 10:42:06.634078,8.24596118927002,2.677664041519165,-0.6389064788818359,1
3225652,2024-02-06 10:42:06.724152,9.191160202026367,3.436216115951538,-0.8686256408691406,1
3225728,2024-02-06 10:42:06.799143,8.006670951843262,3.2902486324310303,-3.08206558227539,1
3225805,2024-02-06 10:42:06.873917,9.590775489807127,3.642006158828736,-4.936569213867188,1
3225881,2024-02-06 10:42:06.948612,7.879846572875977,4.412522315979004,-4.840853214263916,1
3225958,2024-02-06 10:42:07.024138,8.40389347076416,2.940884113311768,-5.441473007202148,1
3226035,2024-02-06 10:42:07.099137,8.049742698669434,2.699200391769409,-4.874353885650635,1
3226111,2024-02-06 10:42:07.173839,8.05452823638916,3.3548572063446045,-4.924604892730713,1
3226187,2024-02-06 10:42:07.248797,8.111958503723145,3.366821765899658,-4.364664554595947,1
3226264,2024-02-06 10:42:07.323914,8.312962532043457,3.3261423110961914,-5.08732271194458,1
3226340,2024-02-06 10:42:07.398958,7.709949970245361,3.47210955619812,-4.3239850997924805,1
3226416,2024-02-06 10:42:07.488920,8.463715553283691,3.484074115753174,-5.1399664878845215,1
3226493,2024-02-06 10:42:07.563915,8.12631607055664,3.5462896823883057,-4.338342189788818,1
3226570,2024-02-06 10:42:07.638920,7.8032732009887695,3.747294187545776,-4.632669925689697,1
3226646,2024-02-06 10:42:07.714089,7.8032732009887695,4.223482608795166,-4.192375183105469,1
3226723,2024-02-06 10:42:07.789116,8.147851943969727,4.1205878257751465,-5.441473007202148,1
3226799,2024-02-06 10:42:07.863928,8.485252380371094,4.302448749542236,-3.828652858734131,1
3226875,2024-02-06 10:42:07.939131,8.451751708984375,3.677899837493897,-3.969834566116333,1
3226952,2024-02-06 10:42:08.013814,7.942061901092529,3.5606472492218018,-4.003335475921631,1
3227029,2024-02-06 10:42:08.089133,9.195945739746094,4.3239850997924805,-4.0152997970581055,1
3227105,2024-02-06 10:42:08.163999,8.832223892211914,5.058607578277588,-3.977013349533081,1
3227182,2024-02-06 10:42:08.254081,6.1976318359375,5.111251831054688,-3.414679765701294,1
3227258,2024-02-06 10:42:08.329118,7.915740013122559,6.077986717224121,-4.103837490081787,1
3227334,2024-02-06 10:42:08.404106,7.217010974884033,5.721443176269531,-3.673113822937012,1
3227411,2024-02-06 10:42:08.479110,6.738429069519043,5.946376800537109,-3.831045866012573,1
3227488,2024-02-06 10:42:08.554098,6.403421878814697,4.584811687469482,-2.8355960845947266,1
3227564,2024-02-06 10:42:08.628929,6.286169528961182,4.972463130950928,-3.960262775421143,1
3227641,2024-02-06 10:42:08.703362,7.195474624633789,5.39122200012207,-4.467559337615967,1
3227717,2024-02-06 10:42:08.778392,7.252904415130615,6.056450366973877,-5.656834602355957,1
3227793,2024-02-06 10:42:08.853979,7.755414962768555,5.6592278480529785,-5.7238359451293945,1
3227870,2024-02-06 10:42:08.929080,7.370156764984131,4.087087154388428,-6.963362693786621,1
3227947,2024-02-06 10:42:09.019111,5.774087429046631,2.424015998840332,-6.738429069519043,1
3228023,2024-02-06 10:42:09.109092,3.421858549118042,0.6987291574478149,-6.649891376495361,1
3228100,2024-02-06 10:42:09.169107,4.845638751983643,0.7968384027481079,-8.114351272583008,1
3228176,2024-02-06 10:42:09.244118,5.17346715927124,1.0768086910247805,-6.798252105712891,1
3228252,2024-02-06 10:42:09.319095,5.10407304763794,-0.2823631465435028,-7.721914291381836,1
3228329,2024-02-06 10:42:09.394150,5.853053092956543,-0.8494823575019836,-10.220110893249512,1
3228406,2024-02-06 10:42:09.468884,5.831517219543457,1.1462029218673706,-8.525931358337402,1
3228482,2024-02-06 10:42:09.544112,3.7137932777404794,0.2512553632259369,-11.756357192993164,1
3228559,2024-02-06 10:42:09.619183,2.366586208343506,1.2873845100402832,-10.51443862915039,1
3228635,2024-02-06 10:42:09.693875,2.0818300247192383,0.923662543296814,-12.608232498168944,1
3228711,2024-02-06 10:42:09.784087,2.995920896530152,2.0196144580841064,-8.56900405883789,1
3228788,2024-02-06 10:42:09.858433,-0.4139730930328369,5.285933971405029,-7.83916711807251,0
3228865,2024-02-06 10:42:09.934054,2.359407424926758,7.903775215148926,-9.073907852172852,0
3228942,2024-02-06 10:42:10.008775,2.5340895652771,7.922918796539307,-6.317277431488037,0
3229018,2024-02-06 10:42:10.083368,2.761415958404541,7.982741355895996,-5.845874309539795,0
3229094,2024-02-06 10:42:10.159065,2.806881189346313,7.097365379333496,-5.795623302459717,0
3229171,2024-02-06 10:42:10.234099,1.541032791137695,7.446730136871338,-5.125608921051025,0
3229248,2024-02-06 10:42:10.309059,2.857132196426392,6.903539657592773,-4.412522315979004,0
3229324,2024-02-06 10:42:10.384059,2.852346420288086,7.508945465087891,-3.479288339614868,0
3229401,2024-02-06 10:42:10.474115,3.4457876682281494,6.882003784179688,-2.61305570602417,0
3229477,2024-02-06 10:42:10.534100,3.0964231491088867,7.736271858215332,-1.8616825342178345,0
3229553,2024-02-06 10:42:10.624078,3.007885456085205,9.64341926574707,-1.739644169807434,0
3229630,2024-02-06 10:42:10.699114,3.752079963684082,10.031070709228516,-0.7609447836875916,0
3229707,2024-02-06 10:42:10.774076,3.3285350799560547,9.475915908813477,-0.0717872455716133,0
3229783,2024-02-06 10:42:10.849030,3.452966451644897,9.459165573120115,-0.5336185097694397,0
3229860,2024-02-06 10:42:10.924065,3.0509579181671143,8.257925987243652,0.6939433217048645,0
3229936,2024-02-06 10:42:10.998905,1.770751953125,7.712342739105225,0.1220383122563362,0
3230012,2024-02-06 10:42:11.073558,0.8423036336898804,8.370392799377441,-0.1603248417377472,0
3230089,2024-02-06 10:42:11.148723,0.4714028835296631,10.131572723388672,0.1196454018354415,0
3230166,2024-02-06 10:42:11.223826,0.2225404530763626,11.59603214263916,-0.033500712364912,0
3230242,2024-02-06 10:42:11.314145,-0.9739136099815368,11.287347793579102,-0.0239290818572044,0
3230319,2024-02-06 10:42:11.388853,-2.7638089656829834,10.062178611755373,-1.3328498601913452,0
3230395,2024-02-06 10:42:11.463745,-3.4122869968414307,11.452458381652832,-0.6436922550201416,0
3230471,2024-02-06 10:42:11.539061,-2.167974710464477,11.607996940612791,-0.0478581637144088,0
3230548,2024-02-06 10:42:11.613320,-2.2397620677948,12.077007293701172,0.588655412197113,0
3230625,2024-02-06 10:42:11.688417,-2.699200391769409,11.383064270019531,0.2727915346622467,0
3230701,2024-02-06 10:42:11.764152,-2.51733922958374,8.58575439453125,-1.0241646766662598,0
3230778,2024-02-06 10:42:11.854079,-3.0318145751953125,7.702771186828613,-1.5936768054962158,0
3230854,2024-02-06 10:42:11.958979,-3.0892443656921387,8.119136810302734,-0.6365135312080383,0
3230930,2024-02-06 10:42:11.988686,-2.6585209369659424,7.449122905731201,-0.3015064299106598,0
3231007,2024-02-06 10:42:12.079040,-1.7898952960968018,6.010984897613525,-0.95477032661438,0
3231083,2024-02-06 10:42:12.154086,-1.4118157625198364,7.485016345977783,0.368507832288742,0
3231160,2024-02-06 10:42:12.229077,-2.376157760620117,9.083478927612305,1.591283917427063,0
3231237,2024-02-06 10:42:12.304072,-2.244547843933105,9.99278450012207,1.5123178958892822,0
3231313,2024-02-06 10:42:12.378918,-3.0246357917785645,9.564454078674316,2.79491662979126,0
3231389,2024-02-06 10:42:12.454045,-0.9380199909210204,8.545074462890625,0.7226582169532776,0
3231466,2024-02-06 10:42:12.529068,0.3015064299106598,11.038484573364258,2.4144442081451416,0
3231542,2024-02-06 10:42:12.604054,1.021771788597107,9.090658187866213,1.2706341743469238,0
3231619,2024-02-06 10:42:12.679081,0.7418015003204346,8.868117332458496,2.347442865371704,0
3231696,2024-02-06 10:42:12.754074,1.098344802856445,8.650362968444824,2.703986167907715,0
3231772,2024-02-06 10:42:12.844063,1.1222739219665527,8.796330451965332,2.715950727462769,0
3231848,2024-02-06 10:42:12.919038,0.7322298884391785,8.83700942993164,2.9887421131134038,0
3231925,2024-02-06 10:42:12.994076,0.0047858161851763,8.561824798583984,3.362035751342773,0
3232001,2024-02-06 10:42:13.069054,0.0550368875265121,9.054763793945312,3.548682689666748,0
3232078,2024-02-06 10:42:13.144046,0.1962184607982635,9.042799949645996,3.5510756969451904,0
3232155,2024-02-06 10:42:13.219053,-0.2368979007005691,9.734350204467772,3.809509754180908,0
3232231,2024-02-06 10:42:13.294044,0.600619912147522,11.548174858093262,2.514946460723877,0
3232307,2024-02-06 10:42:13.368906,-0.9667348861694336,8.676684379577637,1.1533817052841189,0
3232384,2024-02-06 10:42:13.443922,-0.4594383537769317,8.67189884185791,0.7298369407653809,0
3232460,2024-02-06 10:42:13.518881,-1.356778860092163,10.239253997802734,1.8856115341186523,0
3232537,2024-02-06 10:42:13.608888,-1.3208853006362915,10.066964149475098,2.79491662979126,0
3232614,2024-02-06 10:42:13.683854,-0.9093050956726074,9.08108615875244,2.9839563369750977,0
3232690,2024-02-06 10:42:13.758318,-0.758551836013794,8.202888488769531,3.1729960441589355,0
3232766,2024-02-06 10:42:13.833333,-0.4498667120933532,8.56900405883789,3.08206558227539,0
3232843,2024-02-06 10:42:13.909059,-0.569512128829956,10.870981216430664,3.2017109394073486,0
3232919,2024-02-06 10:42:13.983996,0.7178724408149719,9.521381378173828,2.242154836654663,0
3232996,2024-02-06 10:42:14.059047,0.3541503846645355,9.57402515411377,2.495803117752075,0
3233073,2024-02-06 10:42:14.133848,0.2153617292642593,8.712578773498535,1.0768086910247805,0
3233149,2024-02-06 10:42:14.208350,1.4955675601959229,9.901853561401367,2.670485496520996,0
3233226,2024-02-06 10:42:14.283240,2.045936346054077,8.557039260864258,2.347442865371704,0
3233302,2024-02-06 10:42:14.373851,1.770751953125,9.205517768859863,2.6034839153289795,0
3233378,2024-02-06 10:42:14.448879,1.3519930839538574,9.105015754699709,2.641770601272583,0
3233455,2024-02-06 10:42:14.524036,0.8877689242362976,8.815473556518555,2.8499536514282227,0
3233532,2024-02-06 10:42:14.598998,0.284756064414978,9.894675254821776,3.823867082595825,0
3233608,2024-02-06 10:42:14.673902,0.1746822893619537,9.530953407287598,2.787737846374512,0
3233685,2024-02-06 10:42:14.749037,-0.0287148971110582,10.404364585876465,2.9337053298950195,0
3233761,2024-02-06 10:42:14.839039,-0.667621374130249,8.76761531829834,1.9908995628356931,0
3233837,2024-02-06 10:42:14.898911,-1.1055235862731934,8.786758422851562,1.8186101913452148,0
3233914,2024-02-06 10:42:14.974031,-1.1342384815216064,10.282325744628906,2.945669889450073,0
3233991,2024-02-06 10:42:15.049045,-1.2036327123641968,8.978191375732422,2.6656997203826904,0
3234067,2024-02-06 10:42:15.139032,-1.229954719543457,8.935118675231934,2.9528486728668213,0
3234144,2024-02-06 10:42:15.214045,-1.4022440910339355,8.753257751464844,3.08206558227539,0
3234220,2024-02-06 10:42:15.289027,-1.6654640436172483,9.119372367858888,3.117959260940552,0
3234296,2024-02-06 10:42:15.364040,-1.462066888809204,8.899225234985352,3.129923820495605,0
3234373,2024-02-06 10:42:15.438899,-1.3113136291503906,8.693434715270996,3.2926416397094727,0
3234450,2024-02-06 10:42:15.514101,-1.2562767267227173,9.095443725585938,3.2998201847076416,0
3234526,2024-02-06 10:42:15.589041,-0.9667348861694336,8.985369682312012,3.9650487899780273,0
3234603,2024-02-06 10:42:15.663326,-0.7609447836875916,9.61949062347412,4.173231601715088,0
3234679,2024-02-06 10:42:15.738321,-0.2823631465435028,7.815237998962402,2.9815635681152344,0
3234755,2024-02-06 10:42:15.813870,-0.3996156454086303,9.03562068939209,3.053350687026977,0
3234832,2024-02-06 10:42:15.903832,0.7226582169532776,9.004512786865234,2.4000868797302246,0
3234909,2024-02-06 10:42:15.979092,0.6939433217048645,9.760672569274902,2.4144442081451416,0
3234985,2024-02-06 10:42:16.053430,0.7250511646270752,10.129179954528809,2.931312322616577,0
3235062,2024-02-06 10:42:16.144046,0.9188767075538636,8.703006744384766,2.5029819011688232,0
3235138,2024-02-06 10:42:16.204004,1.103130578994751,9.059550285339355,1.7922881841659546,0
3235214,2024-02-06 10:42:16.279113,0.2751844227313995,8.628826141357422,2.304370403289795,0
3235291,2024-02-06 10:42:16.353815,0.208183005452156,8.365606307983398,2.4264087677001958,0
3235368,2024-02-06 10:42:16.428952,0.2033971846103668,7.62141227722168,1.7037506103515625,0
3235444,2024-02-06 10:42:16.504020,-1.591283917427063,7.609447956085205,-0.3661149442195892,0
3235521,2024-02-06 10:42:16.578887,-2.2014753818511963,11.768321990966797,-1.9191123247146609,0
3235597,2024-02-06 10:42:16.654126,-0.8231604099273682,10.409150123596191,-2.093794584274292,0
3235673,2024-02-06 10:42:16.743293,-2.648949146270752,8.57618236541748,-1.86646831035614,1
3235750,2024-02-06 10:42:16.819041,-1.4955675601959229,7.820023536682129,-3.500824451446533,1
3235827,2024-02-06 10:42:16.894068,-1.3376356363296509,7.200260639190674,-2.4288017749786377,1
3235903,2024-02-06 10:42:16.969024,-1.4357448816299438,7.092579364776611,-3.7712230682373047,1
3235980,2024-02-06 10:42:17.043957,-0.9763064980506896,8.365606307983398,-3.345285415649414,1
3236056,2024-02-06 10:42:17.118835,-1.7348583936691284,9.746315002441406,-2.263690948486328,1
3236132,2024-02-06 10:42:17.194062,-2.536482572555542,9.030835151672363,-3.182567834854126,1
3236209,2024-02-06 10:42:17.269001,-2.488624334335327,7.329477310180664,-2.148831367492676,1
3236286,2024-02-06 10:42:17.343876,-1.5888910293579102,8.437394142150879,-5.709478855133057,1
3236362,2024-02-06 10:42:17.448907,-2.270869731903076,11.368706703186035,-4.381414890289307,1
3236439,2024-02-06 10:42:17.509005,-4.2545905113220215,9.310805320739746,-2.8978116512298584,1
3236515,2024-02-06 10:42:17.583968,-1.6176059246063232,11.6151762008667,-7.197867393493652,1
3236591,2024-02-06 10:42:17.658999,-5.137573719024658,4.489095687866211,-4.24501895904541,1
3236668,2024-02-06 10:42:17.733465,-3.187353610992432,4.694885730743408,-4.371842861175537,1
3236745,2024-02-06 10:42:17.809225,-2.395301103591919,5.446259021759033,-5.403186321258545,1
3236821,2024-02-06 10:42:17.884431,-3.366821765899658,3.809509754180908,-7.181117057800293,1
3236898,2024-02-06 10:42:17.959321,-2.2110471725463867,4.8025665283203125,-9.973641395568848,1
3236974,2024-02-06 10:42:18.033404,-1.4907817840576172,3.4242515563964844,-8.418251037597656,1
3237051,2024-02-06 10:42:18.108665,-2.9337053298950195,5.4342942237854,-7.702771186828613,1
3237127,2024-02-06 10:42:18.199031,-1.86646831035614,6.477602005004883,-8.164602279663086,1
3237204,2024-02-06 10:42:18.273852,-1.4572809934616089,6.702535629272461,-6.393850326538086,1
3237281,2024-02-06 10:42:18.348378,-3.302213191986084,12.335441589355469,-13.448143005371094,1
3237357,2024-02-06 10:42:18.424037,-0.6867645978927612,9.758278846740724,0.9212695956230164,1
3237433,2024-02-06 10:42:18.498770,-4.053586483001709,8.652755737304688,-2.979170560836792,1
3237510,2024-02-06 10:42:18.573983,-5.582654476165772,7.681234836578369,-4.393379211425781,1
3237586,2024-02-06 10:42:18.648791,-4.168446063995361,6.872432231903076,-4.034442901611328,1
3237663,2024-02-06 10:42:18.723274,-6.099522590637207,4.654206275939941,-3.6276485919952393,1
3237740,2024-02-06 10:42:18.813318,-6.688178062438965,6.633141040802002,-3.917190551757813,1
3237816,2024-02-06 10:42:18.874004,-9.870745658874512,4.390986442565918,-3.773616075515747,1
3237892,2024-02-06 10:42:18.964032,-9.758278846740724,2.8858470916748047,-5.1399664878845215,1
3237969,2024-02-06 10:42:19.038978,-10.421114921569824,3.077279806137085,-6.008592128753662,1
3238045,2024-02-06 10:42:19.113900,-8.798723220825195,2.541268348693848,-4.974855899810791,1
3238122,2024-02-06 10:42:19.188849,-8.224425315856934,2.670485496520996,-6.070807933807373,1
3238199,2024-02-06 10:42:19.263609,-7.444336891174316,1.1844894886016846,-5.630512714385986,1
3238275,2024-02-06 10:42:19.338848,-7.695592403411865,1.8712540864944456,-6.714499950408936,1
3238351,2024-02-06 10:42:19.414058,-8.269890785217285,1.179703712463379,-6.3196702003479,1
3238428,2024-02-06 10:42:19.503992,-7.741057872772217,1.761180400848389,-5.83390998840332,1
3238504,2024-02-06 10:42:19.564081,-7.985134124755859,2.242154836654663,-6.468030452728272,1
3238581,2024-02-06 10:42:19.639009,-7.147616386413574,2.234976053237915,-5.975091457366943,1
3238658,2024-02-06 10:42:19.713719,-7.212224960327148,2.1272952556610107,-6.159345626831055,1
3238734,2024-02-06 10:42:19.803986,-6.599640369415283,2.567590475082397,-5.89373254776001,1
3238810,2024-02-06 10:42:19.879046,-7.528089046478271,1.464459776878357,-6.77910852432251,1
3238887,2024-02-06 10:42:19.953964,-8.243568420410156,2.732701063156128,-8.104779243469238,1
3238963,2024-02-06 10:42:20.028971,-5.513260364532471,2.900204658508301,-7.262475967407227,1
3239040,2024-02-06 10:42:20.103977,-6.310098648071289,1.2443121671676636,-7.686020851135254,1
3239117,2024-02-06 10:42:20.178265,-5.678370952606201,1.438137769699097,-8.044957160949707,1
3239193,2024-02-06 10:42:20.253973,-5.58983325958252,1.9262909889221191,-7.937276363372803,1
3239269,2024-02-06 10:42:20.328989,-5.520439147949219,1.3831008672714231,-7.860702991485596,1
3239346,2024-02-06 10:42:20.404019,-5.49411678314209,2.0818300247192383,-7.717128753662109,1
3239422,2024-02-06 10:42:20.479004,-5.886553764343262,3.2352118492126465,-8.406286239624023,1
3239499,2024-02-06 10:42:20.568982,-5.982270240783691,2.234976053237915,-7.200260639190674,1
3239576,2024-02-06 10:42:20.643970,-5.979877471923828,2.14404559135437,-7.724307537078857,1
3239652,2024-02-06 10:42:20.718973,-6.860467433929443,1.9262909889221191,-9.01887035369873,1
3239728,2024-02-06 10:42:20.809001,-6.956183910369873,2.1536173820495605,-7.398871898651123,1
3239805,2024-02-06 10:42:20.868993,-7.171545505523682,2.225404500961304,-6.044486045837402,1
3239881,2024-02-06 10:42:20.943954,-7.922918796539307,2.735093832015991,-5.484545230865479,1
3239958,2024-02-06 10:42:21.018798,-7.898989677429199,4.024871349334717,-7.946847915649414,1
3240035,2024-02-06 10:42:21.094179,-8.109565734863281,4.355092525482178,-7.506552696228027,1
3240111,2024-02-06 10:42:21.168972,-6.47520923614502,3.625255823135376,-7.587911605834961,1
3240187,2024-02-06 10:42:21.258961,-5.635298728942871,5.750158309936523,-4.551311016082764,1
3240264,2024-02-06 10:42:21.333936,-6.929862022399902,5.613762378692627,-5.063393592834473,1
3240340,2024-02-06 10:42:21.408955,-6.0325212478637695,5.943983554840088,-5.037071704864502,1
3240416,2024-02-06 10:42:21.483815,-4.96528434753418,5.465402126312256,-3.6491849422454834,1
3240493,2024-02-06 10:42:21.558755,-6.867646217346191,5.97269868850708,-5.673584938049316,1
3240570,2024-02-06 10:42:21.634039,-6.793466091156006,5.2093610763549805,-5.886553764343262,1
3240647,2024-02-06 10:42:21.709043,-7.355799674987793,4.046407699584961,-6.561354160308838,1
3240723,2024-02-06 10:42:21.783924,-5.271576404571533,3.0940301418304443,-5.79083776473999,1
3240799,2024-02-06 10:42:21.858974,-6.441708564758301,1.5458186864852903,-7.652520179748535,1
3240876,2024-02-06 10:42:21.933469,-6.9107184410095215,2.3067634105682373,-7.362977981567383,1
3240953,2024-02-06 10:42:22.023964,-6.697749614715576,1.8162171840667725,-7.52569580078125,1
3241029,2024-02-06 10:42:22.113627,-4.132552146911621,1.5003533363342283,-5.372078895568848,1
3241106,2024-02-06 10:42:22.174016,-5.525224685668945,-0.4163660109043121,-8.60250473022461,1
3241182,2024-02-06 10:42:22.248794,-3.464931011199951,0.8566610813140869,-8.109565734863281,1
3241258,2024-02-06 10:42:22.323387,-3.091637372970581,0.5575475692749023,-12.488587379455566,0
3241335,2024-02-06 10:42:22.398796,-3.766437292098999,2.256512403488159,-11.275382995605469,0
3241412,2024-02-06 10:42:22.474003,-2.354621648788452,3.486467123031616,-10.650834083557127,0
3241488,2024-02-06 10:42:22.548766,-1.4788172245025637,4.154088497161865,-14.369413375854492,0
3241565,2024-02-06 10:42:22.623941,1.9597917795181277,3.675506830215454,-11.418957710266112,0
3241641,2024-02-06 10:42:22.698225,0.1531461179256439,4.714028835296631,-6.838931560516357,0
3241717,2024-02-06 10:42:22.788212,1.904754877090454,5.503688812255859,-7.516124248504639,0
3241794,2024-02-06 10:42:22.863204,2.8762755393981934,7.571161270141602,-5.276362419128418,0
3241871,2024-02-06 10:42:22.938735,2.292405843734741,7.355799674987793,-3.6300415992736816,0
3241947,2024-02-06 10:42:23.013751,1.9215052127838133,7.74345064163208,-2.043543577194214,0
3242024,2024-02-06 10:42:23.088249,2.6537351608276367,6.8126091957092285,-1.1294525861740112,0
3242100,2024-02-06 10:42:23.163134,2.8547394275665283,8.049742698669434,-0.466617077589035,0
3242176,2024-02-06 10:42:23.238983,0.708300769329071,9.308412551879885,-0.4785816073417663,0
3242253,2024-02-06 10:42:23.313808,-0.5647262930870056,9.069121360778809,0.3493645787239074,0
3242330,2024-02-06 10:42:23.388333,-0.5001177787780762,9.961676597595217,1.229954719543457,0
3242406,2024-02-06 10:42:23.463934,-2.5053746700286865,10.526402473449709,2.249333620071411,0
3242483,2024-02-06 10:42:23.553934,-2.6513421535491943,9.136122703552246,-1.1868823766708374,0
3242559,2024-02-06 10:42:23.628456,-2.615448474884033,10.71065616607666,-0.2273262739181518,0
3242635,2024-02-06 10:42:23.703950,-3.053350687026977,10.387614250183104,0.3613291084766388,0
3242712,2024-02-06 10:42:23.793217,-2.486231565475464,10.672369956970217,0.2321120798587799,0
3242789,2024-02-06 10:42:23.853230,-2.804488182067871,10.890124320983888,-1.622391700744629,0
3242865,2024-02-06 10:42:23.928966,-2.6465563774108887,9.691277503967283,-1.770751953125,0
3242942,2024-02-06 10:42:24.003964,-2.416837215423584,8.722149848937988,-2.7087719440460205,0
3243018,2024-02-06 10:42:24.078944,-2.4623024463653564,10.299076080322266,-0.8758043646812439,0
3243094,2024-02-06 10:42:24.168939,-1.70135760307312,8.748472213745117,-0.6269419193267822,0
3243171,2024-02-06 10:42:24.228943,-0.6700142621994019,6.8126091957092285,-0.7561589479446411,0
3243248,2024-02-06 10:42:24.333181,-0.569512128829956,6.649891376495361,0.0789659693837165,0
3243324,2024-02-06 10:42:24.393151,-0.0430723465979099,8.504395484924316,0.9116979837417604,0
3243401,2024-02-06 10:42:24.468696,-0.3182567656040191,9.222268104553224,1.1438100337982178,0
3243477,2024-02-06 10:42:24.543595,-0.8207674622535706,9.93774700164795,1.6271774768829346,0
3243553,2024-02-06 10:42:24.618916,1.4477094411849976,10.179430961608888,0.0406794361770153,0
3243630,2024-02-06 10:42:24.693990,0.4498667120933532,9.509416580200195,1.4692455530166626,0
3243707,2024-02-06 10:42:24.768248,1.3831008672714231,8.446965217590332,0.5790837407112122,0
3243783,2024-02-06 10:42:24.843958,1.4285660982131958,8.798723220825195,1.8880045413970947,0
3243860,2024-02-06 10:42:24.918975,1.56256902217865,9.22705364227295,2.7422726154327397,0
3243936,2024-02-06 10:42:24.993947,1.2945632934570312,8.93272590637207,2.8978116512298584,0
3244012,2024-02-06 10:42:25.083905,1.4429235458374023,8.865724563598633,3.16821026802063,0
3244089,2024-02-06 10:42:25.158972,0.95477032661438,8.82983112335205,2.945669889450073,0
3244166,2024-02-06 10:42:25.233514,0.7035149931907654,9.2725191116333,3.35964298248291,0
3244243,2024-02-06 10:42:25.308191,0.5671192407608032,10.734585762023926,3.3261423110961914,0
3244319,2024-02-06 10:42:25.383898,0.4235447347164154,10.813551902770996,3.0126712322235107,0
3244395,2024-02-06 10:42:25.458926,-0.6149773597717285,8.779580116271973,1.7133221626281738,0
3244472,2024-02-06 10:42:25.533878,-1.0002355575561523,8.021027565002441,0.9093050956726074,0
3244548,2024-02-06 10:42:25.608837,-1.1246668100357056,10.110036849975586,2.3306925296783447,0
3244625,2024-02-06 10:42:25.683785,-1.366350531578064,9.04519271850586,2.86431097984314,0
3244702,2024-02-06 10:42:25.758328,-1.1438100337982178,8.935118675231934,2.703986167907715,0
3244778,2024-02-06 10:42:25.848771,-1.1964540481567385,8.808294296264648,3.2136754989624023,0
3244854,2024-02-06 10:42:25.923941,-1.1079164743423462,8.887260437011719,2.6944146156311035,0
3244931,2024-02-06 10:42:25.998952,-0.9930568337440492,9.21748161315918,4.072729587554932,0
3245007,2024-02-06 10:42:26.073893,-1.2108114957809448,9.456772804260254,4.3048415184021,0
3245083,2024-02-06 10:42:26.148800,-1.1868823766708374,10.67715549468994,3.905225992202759,0
3245160,2024-02-06 10:42:26.223900,1.4524952173233032,8.236390113830566,2.5029819011688232,0
3245237,2024-02-06 10:42:26.343941,0.7011220455169678,8.444572448730469,0.5001177787780762,0
3245313,2024-02-06 10:42:26.388982,0.363722026348114,10.064571380615234,2.5699832439422607,0
3245390,2024-02-06 10:42:26.448898,0.4474738240242004,8.84658145904541,3.2136754989624023,0
3245466,2024-02-06 10:42:26.523998,0.0023929080925881,8.195710182189941,3.5223608016967773,0
3245542,2024-02-06 10:42:26.658942,0.1770751923322677,8.9231538772583,3.5941479206085205,0
3245619,2024-02-06 10:42:26.688519,-0.2991135120391845,9.0978364944458,3.2376046180725098,0
3245696,2024-02-06 10:42:26.778521,-2.086615800857544,13.302176475524902,3.8741180896759033,0
3245772,2024-02-06 10:42:26.838920,-1.7372512817382812,7.5568037033081055,1.112702250480652,0
3245849,2024-02-06 10:42:26.913976,0.5431901216506958,9.657776832580566,1.100737690925598,0
3245925,2024-02-06 10:42:26.988934,-1.208418607711792,9.997570037841797,2.14404559135437,0
3246001,2024-02-06 10:42:27.063743,-1.7324655055999756,8.963833808898926,1.7587873935699463,0
3246078,2024-02-06 10:42:27.153900,-1.5769264698028564,7.798487663269043,2.163188934326172,0
3246155,2024-02-06 10:42:27.213915,-2.58673357963562,8.652755737304688,1.3208853006362915,0
3246231,2024-02-06 10:42:27.288922,-2.060293912887573,8.734114646911621,0.44268798828125,0
3246308,2024-02-06 10:42:27.423930,-1.141417145729065,8.545074462890625,-1.1677391529083252,0
3246384,2024-02-06 10:42:27.453596,-0.4259376525878906,10.0885009765625,-2.8355960845947266,0
3246460,2024-02-06 10:42:27.528913,-0.8518753051757812,11.356741905212402,-2.5053746700286865,0
3246537,2024-02-06 10:42:27.603897,1.998078227043152,9.65299129486084,-0.2560411691665649,0
3246614,2024-02-06 10:42:27.678979,0.679585874080658,8.564218521118164,-1.3256710767745972,0
3246690,2024-02-06 10:42:27.753885,2.261298179626465,7.274440765380859,-2.1895108222961426,0
3246767,2024-02-06 10:42:27.828937,0.6915504336357117,8.841794967651367,-4.436451435089111,0
3246843,2024-02-06 10:42:27.903927,0.0454652532935142,8.9231538772583,-3.9817991256713863,0
3246919,2024-02-06 10:42:27.978311,0.4115802049636841,8.260318756103516,-3.9530842304229736,0
3246996,2024-02-06 10:42:28.053906,0.1914326548576355,8.458930015563965,-5.345756530761719,0
3247073,2024-02-06 10:42:28.128945,0.3421858549118042,8.597719192504883,-5.326613426208496,0
3247149,2024-02-06 10:42:28.218889,-0.2775773406028747,7.726700305938721,-5.039464473724365,0
3247226,2024-02-06 10:42:28.293895,0.0765730589628219,8.736507415771484,-6.125844955444336,0
3247302,2024-02-06 10:42:28.368887,0.2871489822864532,9.31319808959961,-6.245490074157715,0
3247378,2024-02-06 10:42:28.443881,0.8279461860656738,9.70563507080078,-6.044486045837402,0
3247455,2024-02-06 10:42:28.518898,0.0717872455716133,9.70563507080078,-5.0131425857543945,0
3247532,2024-02-06 10:42:28.593929,0.7011220455169678,11.720463752746582,-5.970305919647217,0
3247608,2024-02-06 10:42:28.668802,-0.0263219885528087,13.405071258544922,-1.4070299863815308,0
3247685,2024-02-06 10:42:28.743211,-0.7250511646270752,7.781737327575684,-0.9978426694869996,0
3247761,2024-02-06 10:42:28.833251,-0.1722893863916397,9.736742973327637,-0.9164838194847108,0
3247837,2024-02-06 10:42:28.893936,-0.0215361732989549,9.526166915893556,0.9356270432472228,0
3247914,2024-02-06 10:42:28.983849,-1.1533817052841189,7.774558544158935,1.904754877090454,0
3247991,2024-02-06 10:42:29.058900,-0.7130866050720215,9.949711799621582,2.28283429145813,0
3248067,2024-02-06 10:42:29.133881,-0.2560411691665649,9.078693389892578,2.9193477630615234,0
3248144,2024-02-06 10:42:29.208907,-0.4546525478363037,8.729329109191895,3.668328046798706,0
3248220,2024-02-06 10:42:29.283910,-0.5072965025901794,8.674291610717773,3.9578700065612793,0
3248296,2024-02-06 10:42:29.358190,-0.5025107264518738,8.336892127990723,4.266555309295654,0
3248373,2024-02-06 10:42:29.433835,-0.5431901216506958,8.987762451171875,3.9506912231445312,0
3248450,2024-02-06 10:42:29.508873,-0.3158638775348663,8.832223892211914,4.407736778259277,0
3248526,2024-02-06 10:42:29.598892,-0.4091872870922088,8.734114646911621,4.060765266418457,0
3248603,2024-02-06 10:42:29.658898,-0.308685153722763,8.521145820617676,4.115801811218262,0
3248679,2024-02-06 10:42:29.748666,0.0526439771056175,8.698221206665039,4.419701099395752,0
3248755,2024-02-06 10:42:29.823869,0.2392908036708831,8.947083473205566,4.879139423370361,0
3248832,2024-02-06 10:42:29.898919,0.1100737750530242,8.815473556518555,4.582418918609619,0
3248909,2024-02-06 10:42:29.973967,-0.1627177447080612,7.992312908172607,3.642006158828736,0
3248985,2024-02-06 10:42:30.049251,-0.8327320218086243,8.66472053527832,3.613291263580322,0
3249062,2024-02-06 10:42:30.123885,0.382865309715271,9.727170944213867,2.900204658508301,0
3249138,2024-02-06 10:42:30.198754,-0.2871489822864532,8.432607650756836,3.058136463165283,0
3249215,2024-02-06 10:42:30.273171,-0.4929390549659729,8.944690704345703,2.86431097984314,0
3249291,2024-02-06 10:42:30.363928,-0.1172524988651275,9.597954750061035,2.14404559135437,0
3249368,2024-02-06 10:42:30.423867,0.0,9.801351547241213,1.837753415107727,0
3249445,2024-02-06 10:42:30.513725,-0.3661149442195892,10.454615592956545,0.5766908526420593,0
3249521,2024-02-06 10:42:30.588883,0.746587336063385,11.469208717346191,-3.4816813468933105,0
3249597,2024-02-06 10:42:30.678895,0.0789659693837165,11.80421543121338,-2.5340895652771,0
3249674,2024-02-06 10:42:30.738935,0.9475916028022766,11.871216773986816,-3.5941479206085205,0
3249750,2024-02-06 10:42:30.814077,0.3996156454086303,10.672369956970217,-2.254119396209717,0
3249827,2024-02-06 10:42:30.889400,-0.0765730589628219,9.672134399414062,-2.249333620071411,0
3249904,2024-02-06 10:42:30.964250,-0.1148595884442329,9.026049613952637,-1.7324655055999756,0
3249980,2024-02-06 10:42:31.039304,-0.1459673941135406,9.248589515686035,-1.2419192790985107,0
3250056,2024-02-06 10:42:31.128857,0.1507532149553299,9.528559684753418,-1.3926725387573242,0
3250133,2024-02-06 10:42:31.188680,-0.3732936680316925,10.19139575958252,-0.6867645978927612,0
3250209,2024-02-06 10:42:31.278774,-0.4402951002120971,9.36584186553955,-0.6652284264564514,0
3250286,2024-02-06 10:42:31.353878,-0.6652284264564514,6.570925712585449,0.6101915836334229,0
3250363,2024-02-06 10:42:31.428936,-0.5814766883850098,6.594854831695557,0.6508709788322449,0
3250439,2024-02-06 10:42:31.503882,-0.8279461860656738,8.39432144165039,2.177546262741089,0
3250515,2024-02-06 10:42:31.578868,-1.5697476863861084,8.789151191711426,3.2304258346557617,0
3250592,2024-02-06 10:42:31.653851,-1.416601538658142,9.054763793945312,3.8693323135375977,0
3250668,2024-02-06 10:42:31.728889,-0.8088029623031616,8.600111961364746,3.2160685062408447,0
3250745,2024-02-06 10:42:31.803854,-1.0600582361221311,8.540288925170898,3.436216115951538,0
3250822,2024-02-06 10:42:31.893842,-1.1677391529083252,9.126551628112791,2.830810308456421,0
3250898,2024-02-06 10:42:31.953872,-1.0265575647354126,9.188767433166504,3.996156454086304,0
3250974,2024-02-06 10:42:32.043907,-1.021771788597107,9.119372367858888,3.7760090827941895,0
3251051,2024-02-06 10:42:32.118846,-0.9188767075538636,10.552724838256836,4.046407699584961,0
3251127,2024-02-06 10:42:32.193891,-0.9763064980506896,9.978426933288574,3.780794858932495,0
3251204,2024-02-06 10:42:32.268856,-0.368507832288742,8.987762451171875,3.070101022720337,0
3251281,2024-02-06 10:42:32.343920,0.3661149442195892,8.415857315063477,1.998078227043152,0
3251357,2024-02-06 10:42:32.418863,0.4211518168449402,10.169858932495115,1.70135760307312,0
3251433,2024-02-06 10:42:32.493873,-0.1459673941135406,9.710420608520508,3.3979294300079346,0
3251510,2024-02-06 10:42:32.568793,0.1196454018354415,8.913582801818848,3.0246357917785645,0
3251586,2024-02-06 10:42:32.658864,-0.2129688262939453,8.614469528198242,3.153852939605713,0
3251663,2024-02-06 10:42:32.718909,-0.4067943692207336,8.805901527404785,3.821474313735962,0
3251740,2024-02-06 10:42:32.808820,-0.521653950214386,8.693434715270996,3.988977909088135,0
3251816,2024-02-06 10:42:32.883819,-0.2943277060985565,8.851366996765137,3.81908130645752,0
3251892,2024-02-06 10:42:32.958855,-0.0287148971110582,9.093050956726074,4.111016273498535,0
3251969,2024-02-06 10:42:33.033842,-0.0957163274288177,9.944926261901855,4.0224785804748535,0
3252045,2024-02-06 10:42:33.108839,-0.758551836013794,8.755650520324707,2.366586208343506,0
3252122,2024-02-06 10:42:33.183800,-1.5194966793060305,8.384750366210938,1.928683876991272,0
3252199,2024-02-06 10:42:33.258891,-2.8355960845947266,8.865724563598633,1.081594467163086,0
3252275,2024-02-06 10:42:33.348875,-2.311549186706543,9.873138427734377,2.2589051723480225,0
3252351,2024-02-06 10:42:33.408862,-2.2158329486846924,9.806137084960938,2.464695453643799,0
3252428,2024-02-06 10:42:33.483831,-1.945434331893921,8.51396656036377,1.966970443725586,0
3252504,2024-02-06 10:42:33.573849,-1.6391420364379885,9.176802635192873,2.0985803604125977,0
3252581,2024-02-06 10:42:33.648369,-2.115330696105957,9.763065338134766,2.4144442081451416,0
3252658,2024-02-06 10:42:33.723916,-1.3831008672714231,9.19355297088623,2.730308055877685,0
3252734,2024-02-06 10:42:33.798152,-1.6415349245071411,10.133965492248535,2.739879846572876,0
3252810,2024-02-06 10:42:33.873946,-1.5697476863861084,8.877689361572266,2.759022951126098,0
3252887,2024-02-06 10:42:33.948712,-1.557783126831055,8.817866325378418,3.503217458724976,0
3252963,2024-02-06 10:42:34.023840,-1.25866961479187,9.126551628112791,3.211282730102539,0
3253040,2024-02-06 10:42:34.098734,-1.0887731313705444,8.865724563598633,2.811666965484619,0
3253117,2024-02-06 10:42:34.188871,-0.1363957673311233,8.494823455810547,2.9121692180633545,0
3253193,2024-02-06 10:42:34.248711,-0.0741801485419273,10.100464820861816,4.529775142669678,0
3253269,2024-02-06 10:42:34.338636,0.1651106625795364,8.494823455810547,3.3213565349578857,0
3253346,2024-02-06 10:42:34.413864,0.181861013174057,8.559432029724121,3.3907508850097656,0
3253422,2024-02-06 10:42:34.488054,0.1459673941135406,9.033227920532228,4.06315803527832,0
3253499,2024-02-06 10:42:34.563829,0.12921704351902,8.48285961151123,4.127766609191895,0
3253576,2024-02-06 10:42:34.638767,-0.0909305065870285,8.432607650756836,4.046407699584961,0
3253652,2024-02-06 10:42:34.713713,-0.1507532149553299,8.590539932250977,4.467559337615967,0
3253729,2024-02-06 10:42:34.803881,-0.8279461860656738,10.090893745422363,4.517810344696045,0
3253805,2024-02-06 10:42:34.863874,-1.3376356363296509,9.873138427734377,2.1799392700195312,0
3253881,2024-02-06 10:42:34.953848,-1.9238981008529663,9.22705364227295,3.273498296737671,0
3253958,2024-02-06 10:42:35.028837,-2.4192299842834477,8.853759765625,1.531461238861084,0
3254035,2024-02-06 10:42:35.103813,-1.7348583936691284,9.243803977966309,2.368978977203369,0
3254111,2024-02-06 10:42:35.178703,-1.8281817436218264,9.504631042480469,2.823631525039673,0
3254188,2024-02-06 10:42:35.253881,-1.5864980220794678,8.710185050964355,2.641770601272583,0
3254264,2024-02-06 10:42:35.328919,-1.6774286031723022,8.22921085357666,3.153852939605713,0
3254340,2024-02-06 10:42:35.403861,-1.8640754222869875,9.085871696472168,3.826260089874268,0
3254417,2024-02-06 10:42:35.478865,-2.19668960571289,7.860702991485596,3.464931011199951,0
3254494,2024-02-06 10:42:35.553813,-3.6372203826904297,8.351249694824219,3.4194657802581787,0
3254570,2024-02-06 10:42:35.628882,-2.0124356746673584,11.237096786499023,1.986113667488098,0
3254647,2024-02-06 10:42:35.733081,-0.0885375961661338,9.901853561401367,0.8973405361175537,0
3254723,2024-02-06 10:42:35.793055,0.667621374130249,8.6096830368042,2.3067634105682373,0
3254799,2024-02-06 10:42:35.868418,0.8781972527503967,9.617097854614258,2.0626866817474365,0
3254876,2024-02-06 10:42:35.943602,0.3062922358512878,9.564454078674316,2.292405843734741,0
3254953,2024-02-06 10:42:36.018474,0.0909305065870285,9.116979598999023,1.7085363864898682,0
3255029,2024-02-06 10:42:36.108861,-0.0263219885528087,9.071514129638672,1.0528795719146729,0
3255106,2024-02-06 10:42:36.168445,-0.7489802241325378,8.48046588897705,0.8758043646812439,0
3255182,2024-02-06 10:42:36.243805,-1.2227760553359983,8.578575134277344,1.531461238861084,0
3255258,2024-02-06 10:42:36.318436,-1.9693633317947388,10.500081062316896,2.129688262939453,0
3255335,2024-02-06 10:42:36.393800,-2.555625915527344,10.370863914489746,2.4120514392852783,0
3255412,2024-02-06 10:42:36.483585,-2.711164951324463,8.801115989685059,1.306527853012085,0
3255488,2024-02-06 10:42:36.558470,-2.5963053703308105,8.233996391296387,1.0074143409729004,0
3255565,2024-02-06 10:42:36.633487,-2.9839563369750977,8.528324127197266,-0.0598227009177207,0
3255641,2024-02-06 10:42:36.708740,-3.153852939605713,9.614705085754396,-1.821003079414368,0
3255717,2024-02-06 10:42:36.783689,-0.4331163763999939,8.877689361572266,-0.461831271648407,0
3255794,2024-02-06 10:42:36.858852,-0.0693943351507186,8.760436058044434,-2.61305570602417,0
3255871,2024-02-06 10:42:36.933386,0.9380199909210204,8.927940368652344,-2.1033661365509038,0
3255947,2024-02-06 10:42:37.008612,1.0863802433013916,9.05237102508545,-2.479052782058716,0
3256024,2024-02-06 10:42:37.083681,0.0215361732989549,8.296212196350098,-4.0152997970581055,0
3256100,2024-02-06 10:42:37.158985,-1.0098072290420532,9.79177951812744,-4.618312835693359,0
3256176,2024-02-06 10:42:37.248866,0.3110780417919159,9.442415237426758,-4.5632758140563965,0
3256253,2024-02-06 10:42:37.323775,-0.2297191768884658,9.160052299499512,-5.13039493560791,0
3256330,2024-02-06 10:42:37.398798,-0.5742979645729065,9.073907852172852,-5.242861747741699,0
3256407,2024-02-06 10:42:37.473837,-0.5049036145210266,8.825044631958008,-4.864782333374023,0
3256483,2024-02-06 10:42:37.548666,-0.6245490312576294,8.281854629516602,-4.950926780700684,0
3256559,2024-02-06 10:42:37.623828,-1.6702498197555542,8.982976913452148,-5.350542545318604,0
3256636,2024-02-06 10:42:37.698735,-0.95477032661438,9.928175926208496,-4.450809001922607,0
3256712,2024-02-06 10:42:37.773682,-0.7394086122512817,10.457008361816406,-3.8047239780426025,0
3256789,2024-02-06 10:42:37.848673,-0.8829830884933472,12.919310569763184,-2.0985803604125977,0
3256866,2024-02-06 10:42:37.923839,-1.541032791137695,9.70563507080078,1.0839873552322388,0
3256942,2024-02-06 10:42:38.013827,-0.521653950214386,7.858310222625732,0.5001177787780762,0
3257018,2024-02-06 10:42:38.088630,-0.6580497026443481,9.545310020446776,0.806410014629364,0
3257095,2024-02-06 10:42:38.163766,-0.9308412671089172,9.985605239868164,2.017221450805664,0
3257171,2024-02-06 10:42:38.238778,-1.3304568529129028,9.176802635192873,2.9049904346466064,0
3257248,2024-02-06 10:42:38.313642,-2.010042905807495,8.628826141357422,3.05574369430542,0
3257325,2024-02-06 10:42:38.388765,-2.471873998641968,8.877689361572266,3.917190551757813,0
3257401,2024-02-06 10:42:38.463640,-1.957398772239685,7.57834005355835,4.431665897369385,0
3257477,2024-02-06 10:42:38.538823,-3.113173484802246,6.982505798339844,4.929390907287598,0
3257554,2024-02-06 10:42:38.613809,-3.4816813468933105,7.233761310577393,4.874353885650635,0
3257630,2024-02-06 10:42:38.688839,-4.213911056518555,6.992077350616455,5.845874309539795,0
3257707,2024-02-06 10:42:38.778051,-3.6228628158569336,7.260083198547363,5.58983325958252,0
3257784,2024-02-06 10:42:38.853066,-4.247411727905273,6.350778102874756,5.003571033477783,0
3257860,2024-02-06 10:42:38.928809,-5.738193511962891,6.594854831695557,5.092108249664307,0
3257936,2024-02-06 10:42:39.003774,-4.223482608795166,4.764279842376709,5.608976364135742,0
3258013,2024-02-06 10:42:39.093768,-7.049507141113281,4.448416233062744,6.408207893371582,0
3258089,2024-02-06 10:42:39.153792,-6.456066131591797,3.4888598918914795,8.408679008483887,0
3258166,2024-02-06 10:42:39.228808,-2.043543577194214,3.1490671634674072,7.1500091552734375,0
3258243,2024-02-06 10:42:39.303789,-4.278519630432129,0.648478090763092,6.9801130294799805,0
3258319,2024-02-06 10:42:39.393783,-4.008121013641357,1.3735291957855225,7.126080513000488,0
3258395,2024-02-06 10:42:39.453811,-3.9459054470062256,0.0837517827749252,7.434765338897705,0
3258472,2024-02-06 10:42:39.543776,-4.5632758140563965,-1.0600582361221311,8.095208168029785,0
3258548,2024-02-06 10:42:39.618099,-10.715442657470703,-6.975327014923096,11.471601486206056,0
3258625,2024-02-06 10:42:39.693811,-1.8329676389694212,-3.895654439926148,7.729093074798584,0
3258702,2024-02-06 10:42:39.768796,-3.8765110969543457,-5.403186321258545,7.56158971786499,0
3258778,2024-02-06 10:42:39.843810,-3.4386088848114014,-4.867175102233887,8.691041946411133,0
3258854,2024-02-06 10:42:39.918745,-2.514946460723877,-4.682920932769775,9.75588607788086,0
3258931,2024-02-06 10:42:39.993770,-1.9908995628356931,-4.237840175628662,8.580968856811523,0
3259007,2024-02-06 10:42:40.068751,-1.7324655055999756,-2.3235137462615967,9.08108615875244,0
3259083,2024-02-06 10:42:40.143791,-1.1462029218673706,-3.910011768341065,9.033227920532228,0
3259160,2024-02-06 10:42:40.218748,-1.2443121671676636,-2.1655819416046143,9.952104568481444,0
3259237,2024-02-06 10:42:40.308053,1.131845474243164,-15.97026824951172,25.42943382263184,0
3259313,2024-02-06 10:42:40.398643,-1.5888910293579102,-3.943512439727783,8.372785568237305,0
3259390,2024-02-06 10:42:40.458781,-1.4213874340057373,-3.464931011199951,9.394556999206545,0
3259466,2024-02-06 10:42:40.533220,-0.382865309715271,-3.3835721015930176,9.212696075439451,0
3259542,2024-02-06 10:42:40.608788,-0.8901618123054504,-2.663306713104248,9.504631042480469,0
3259619,2024-02-06 10:42:40.683527,-0.7968384027481079,-3.232818841934204,8.913582801818848,0
3259696,2024-02-06 10:42:40.758455,-0.7824809551239014,-3.469716787338257,9.105015754699709,0
3259773,2024-02-06 10:42:40.833713,-1.012200117111206,-3.342892646789551,9.18398094177246,0
3259849,2024-02-06 10:42:40.908775,-1.366350531578064,-3.426644325256348,9.258161544799805,0
3259925,2024-02-06 10:42:40.983719,-1.4668526649475098,-3.338106870651245,9.188767433166504,0
3260002,2024-02-06 10:42:41.073772,-1.4213874340057373,-3.450573444366455,9.370628356933594,0
3260079,2024-02-06 10:42:41.148803,-1.7324655055999756,-2.9480626583099365,8.683863639831543,0
3260155,2024-02-06 10:42:41.223774,-1.6487137079238892,-3.146674156188965,9.095443725585938,0
3260232,2024-02-06 10:42:41.298191,-1.5721405744552612,-3.1490671634674072,9.093050956726074,0
3260308,2024-02-06 10:42:41.373276,-1.672642707824707,-3.2232472896575928,9.01887035369873,0
3260384,2024-02-06 10:42:41.448839,-1.689393162727356,-3.644398927688599,8.789151191711426,0
3260461,2024-02-06 10:42:41.523087,-1.9334697723388672,-3.785580635070801,8.683863639831543,0
3260538,2024-02-06 10:42:41.598653,-1.8951832056045528,-3.053350687026977,8.542681694030762,0
3260614,2024-02-06 10:42:41.673160,-1.8329676389694212,-2.9193477630615234,8.537896156311035,0
3260691,2024-02-06 10:42:41.748859,-2.325906753540039,-3.929155111312866,8.94947624206543,0
3260767,2024-02-06 10:42:41.838466,-1.8568966388702397,-3.73293662071228,8.528324127197266,0
3260843,2024-02-06 10:42:41.913779,-1.966970443725586,-3.8549749851226807,9.021263122558594,0
3260920,2024-02-06 10:42:41.988379,-2.361800193786621,-3.2902486324310303,8.659934043884277,0
3260997,2024-02-06 10:42:42.063744,-2.0124356746673584,-3.7114005088806152,9.320377349853516,0
3261073,2024-02-06 10:42:42.138383,-2.060293912887573,-3.792759418487549,8.717364311218262,0
3261150,2024-02-06 10:42:42.213629,-1.86646831035614,-3.878904104232788,8.980584144592285,0
3261226,2024-02-06 10:42:42.288784,-2.8762755393981934,-3.436216115951538,8.868117332458496,0
3261302,2024-02-06 10:42:42.363763,-3.6994359493255615,-4.173231601715088,9.078693389892578,0
3261379,2024-02-06 10:42:42.438769,-4.051193237304688,-3.7209720611572266,9.164837837219238,0
3261456,2024-02-06 10:42:42.513770,-4.527381896972656,-3.5534684658050537,9.456772804260254,0
3261532,2024-02-06 10:42:42.618725,-4.173231601715088,-0.3421858549118042,7.444336891174316,0
3261609,2024-02-06 10:42:42.678623,-7.044721603393555,0.8231604099273682,8.858545303344727,0
3261685,2024-02-06 10:42:42.753743,-6.305312633514404,1.32806396484375,8.009063720703125,0
3261761,2024-02-06 10:42:42.828761,-9.600347518920898,0.3038993179798126,7.992312908172607,0
3261838,2024-02-06 10:42:42.903765,-3.469716787338257,2.8762755393981934,7.023185253143311,0
3261915,2024-02-06 10:42:42.978610,-3.141888380050659,1.706143498420715,6.865253448486328,0
3261991,2024-02-06 10:42:43.053741,-5.427115440368652,3.421858549118042,6.738429069519043,0
3262068,2024-02-06 10:42:43.128731,-5.020321369171143,3.187353610992432,7.293583869934082,0
3262144,2024-02-06 10:42:43.203771,-3.6491849422454834,4.376628875732422,7.946847915649414,0
3262220,2024-02-06 10:42:43.278765,-5.525224685668945,3.7712230682373047,8.0377779006958,0
3262297,2024-02-06 10:42:43.368752,-6.001413345336914,3.2376046180725098,7.774558544158935,0
3262374,2024-02-06 10:42:43.443751,-5.34814977645874,2.6465563774108887,7.841559886932373,0
3262450,2024-02-06 10:42:43.533696,-4.627884387969971,2.416837215423584,7.147616386413574,0
3262527,2024-02-06 10:42:43.593730,-5.649655818939209,4.654206275939941,6.807823657989502,0
3262603,2024-02-06 10:42:43.668757,-5.987056255340576,5.771694183349609,5.843481540679932,0
3262679,2024-02-06 10:42:43.742989,-5.951162338256836,5.221325397491455,5.089715480804443,0
3262756,2024-02-06 10:42:43.818031,-6.113880157470703,6.594854831695557,4.060765266418457,0
3262833,2024-02-06 10:42:43.894026,-4.9078545570373535,6.616390705108643,3.007885456085205,0
3262909,2024-02-06 10:42:43.969173,-4.52259635925293,7.896596908569336,2.902597427368164,0
3262986,2024-02-06 10:42:44.044199,-3.969834566116333,8.068885803222656,2.2876200675964355,0
3263062,2024-02-06 10:42:44.133677,-4.503453254699707,8.004277229309082,1.7898952960968018,0
3263138,2024-02-06 10:42:44.208748,-3.7975451946258554,9.100229263305664,0.588655412197113,0
3263215,2024-02-06 10:42:44.283427,-2.995920896530152,8.571396827697754,1.2538838386535645,0
3263291,2024-02-06 10:42:44.358559,-2.4264087677001958,9.894675254821776,0.1244312226772308,0
3263368,2024-02-06 10:42:44.433477,-1.4213874340057373,11.782679557800291,-3.26392674446106,0
3263445,2024-02-06 10:42:44.508703,-0.3038993179798126,11.48595905303955,-6.097129821777344,0
3263521,2024-02-06 10:42:44.582960,-1.4716384410858154,11.122237205505373,-4.295269966125488,0
3263597,2024-02-06 10:42:44.658742,-0.0526439771056175,10.598190307617188,-4.388593673706055,0
3263674,2024-02-06 10:42:44.733674,0.8135887384414673,9.928175926208496,-3.378786325454712,0
3263750,2024-02-06 10:42:44.808464,-0.8973405361175537,9.0284423828125,-3.7784018516540527,0
3263827,2024-02-06 10:42:44.898274,-0.2536482512950897,9.05237102508545,-1.7755378484725952,0
3263904,2024-02-06 10:42:44.973739,0.0598227009177207,9.518988609313965,-1.0074143409729004,0
3263980,2024-02-06 10:42:45.048842,0.7753022313117981,8.097600936889648,0.1483602970838546,0
3264056,2024-02-06 10:42:45.123753,0.6245490312576294,8.15024471282959,-0.2512553632259369,0
3264133,2024-02-06 10:42:45.198719,0.8710185289382935,8.116744041442871,-0.0861446931958198,0
3264209,2024-02-06 10:42:45.273709,0.6460852026939392,7.508945465087891,0.8542681932449341,0
3264286,2024-02-06 10:42:45.348603,1.4405306577682495,7.678842067718506,2.4431591033935547,0
3264363,2024-02-06 10:42:45.423723,0.2416837215423584,8.468502044677734,2.347442865371704,0
3264439,2024-02-06 10:42:45.498610,0.7394086122512817,9.303627014160156,3.1155662536621094,0
3264515,2024-02-06 10:42:45.573756,0.4570454359054565,9.126551628112791,2.936098337173462,0
3264592,2024-02-06 10:42:45.648539,0.4546525478363037,8.523538589477539,2.9983139038085938,0
3264668,2024-02-06 10:42:45.738724,0.4809745252132416,9.298840522766112,3.5941479206085205,0
3264745,2024-02-06 10:42:45.813713,0.4379021823406219,8.884867668151855,3.716186285018921,0
3264822,2024-02-06 10:42:45.888692,0.208183005452156,8.971012115478516,3.943512439727783,0
3264898,2024-02-06 10:42:45.963652,0.4235447347164154,9.547703742980955,3.766437292098999,0
3264974,2024-02-06 10:42:46.038709,-0.4833674430847168,9.822887420654297,2.627413034439087,0
3265051,2024-02-06 10:42:46.113769,-0.8207674622535706,8.987762451171875,2.160795927047729,0
3265127,2024-02-06 10:42:46.188745,-1.2419192790985107,9.076300621032717,2.304370403289795,0
3265204,2024-02-06 10:42:46.263714,-1.983720779418945,9.29644775390625,2.4192299842834477,0
3265281,2024-02-06 10:42:46.338717,-1.6152129173278809,9.968854904174805,3.105994701385498,0
3265357,2024-02-06 10:42:46.428034,-1.584105134010315,8.700613975524902,2.938491106033325,0
3265434,2024-02-06 10:42:46.503733,-1.3735291957855225,8.913582801818848,3.357249975204468,0
3265510,2024-02-06 10:42:46.578722,-1.4596738815307615,8.971012115478516,3.385964870452881,0
3265586,2024-02-06 10:42:46.653710,-0.9428057670593262,9.198338508605955,3.3213565349578857,0
3265663,2024-02-06 10:42:46.728830,-1.0696299076080322,8.75086498260498,3.960262775421143,0
3265740,2024-02-06 10:42:46.803695,-0.6915504336357117,8.662327766418457,3.601326704025269,0
3265816,2024-02-06 10:42:46.893716,-0.8423036336898804,9.0284423828125,4.118195056915283,0
3265893,2024-02-06 10:42:46.953755,-0.8805902004241943,9.985605239868164,4.484309673309326,0
3265969,2024-02-06 10:42:47.028751,-0.3254354894161224,8.698221206665039,3.426644325256348,0
3266045,2024-02-06 10:42:47.103692,-0.1914326548576355,8.781972885131836,3.338106870651245,0
3266122,2024-02-06 10:42:47.208563,0.1363957673311233,9.021263122558594,3.357249975204468,0
3266199,2024-02-06 10:42:47.268710,-0.1340028494596481,7.932490348815918,3.3261423110961914,0
3266275,2024-02-06 10:42:47.343676,-0.2680056989192962,9.40173625946045,3.584576368331909,0
3266352,2024-02-06 10:42:47.418730,0.067001424729824,9.320377349853516,3.613291263580322,0
3266428,2024-02-06 10:42:47.493680,0.2727915346622467,8.48046588897705,3.218461275100708,0
3266504,2024-02-06 10:42:47.567976,0.1076808646321296,8.48046588897705,3.56782603263855,0
3266581,2024-02-06 10:42:47.643712,0.0143574485555291,8.82983112335205,4.1564812660217285,0
3266658,2024-02-06 10:42:47.718685,0.1698964685201645,8.48046588897705,3.7137932777404794,0
3266734,2024-02-06 10:42:47.793663,0.1866468340158462,8.693434715270996,3.352464199066162,0
3266811,2024-02-06 10:42:47.868554,-0.1148595884442329,8.619255065917969,4.70445728302002,0
3266887,2024-02-06 10:42:47.958700,0.6987291574478149,8.066493034362793,2.663306713104248,0
3266963,2024-02-06 10:42:48.033627,-1.246705174446106,7.942061901092529,0.4809745252132416,0
3267040,2024-02-06 10:42:48.108714,-0.1244312226772308,7.547232151031494,-0.2273262739181518,0
3267117,2024-02-06 10:42:48.183628,-0.5647262930870056,8.729329109191895,-2.593912363052368,0
3267193,2024-02-06 10:42:48.258692,-0.3206496834754944,9.071514129638672,-2.5699832439422607,0
3267270,2024-02-06 10:42:48.333641,-0.4283305406570434,8.116744041442871,-3.828652858734131,0
3267346,2024-02-06 10:42:48.408674,0.4474738240242004,7.92531156539917,-5.908090114593506,0
3267422,2024-02-06 10:42:48.483632,-0.1866468340158462,8.114351272583008,-6.436922550201416,0
3267499,2024-02-06 10:42:48.558689,0.3972227573394775,7.434765338897705,-4.706850051879883,0
3267576,2024-02-06 10:42:48.633473,0.7226582169532776,8.578575134277344,-5.599404811859131,0
3267652,2024-02-06 10:42:48.723511,0.8542681932449341,8.241175651550293,-7.686020851135254,0
3267729,2024-02-06 10:42:48.797974,0.8183745741844177,6.042092800140381,-8.097600936889648,0
3267805,2024-02-06 10:42:48.873491,0.7489802241325378,5.26918363571167,-7.286405086517334,0
3267881,2024-02-06 10:42:48.948659,0.1411815732717514,5.537189483642578,-5.948769569396973,1
3267958,2024-02-06 10:42:49.023672,2.873882532119751,6.810216426849365,-2.9672060012817383,1
3268035,2024-02-06 10:42:49.098649,7.82241678237915,-5.101680278778076,-11.990862846374512,1
3268111,2024-02-06 10:42:49.173602,-3.4601449966430664,3.4170727729797363,-16.525423049926758,1
3268188,2024-02-06 10:42:49.248470,2.206261157989502,2.3785505294799805,-13.89083194732666,1
3268264,2024-02-06 10:42:49.323654,2.268476963043213,1.9765421152114868,-5.582654476165772,1
3268340,2024-02-06 10:42:49.398700,1.6558923721313477,3.606112480163574,-11.80421543121338,1
3268417,2024-02-06 10:42:49.488693,1.7540016174316406,4.407736778259277,-9.909032821655272,1
3268494,2024-02-06 10:42:49.578655,3.278284072875977,8.865724563598633,-15.197359085083008,1
3268570,2024-02-06 10:42:49.638701,2.8355960845947266,3.3333208560943604,-9.875532150268556,1
3268647,2024-02-06 10:42:49.713386,2.2301902770996094,2.234976053237915,-9.858781814575195,1
3268723,2024-02-06 10:42:49.788683,1.4788172245025637,1.4285660982131958,-9.765458106994627,1
3268799,2024-02-06 10:42:49.863655,1.110309362411499,1.2155972719192505,-9.93056869506836,1
3268876,2024-02-06 10:42:49.938668,0.8734114766120911,0.825553297996521,-10.224896430969238,1
3268953,2024-02-06 10:42:50.013748,0.6460852026939392,0.6245490312576294,-10.186610221862791,1
3269029,2024-02-06 10:42:50.133730,0.6508709788322449,0.600619912147522,-9.997570037841797,1
3269106,2024-02-06 10:42:50.163830,0.5551546812057495,0.5671192407608032,-10.035856246948242,1
3269182,2024-02-06 10:42:50.238697,0.5072965025901794,0.5479759573936462,-10.136358261108398,1
3269258,2024-02-06 10:42:50.463221,0.5192610621452332,0.5719050168991089,-10.062178611755373,1
3269335,2024-02-06 10:42:50.463698,0.4881532490253448,0.5671192407608032,-9.985605239868164,1
3269412,2024-02-06 10:42:50.478147,0.5192610621452332,0.588655412197113,-10.098072052001951,1
3269488,2024-02-06 10:42:50.583614,0.5025107264518738,0.588655412197113,-10.081321716308594,1
3269565,2024-02-06 10:42:50.688665,0.4953319728374481,0.648478090763092,-10.045428276062012,1
3269641,2024-02-06 10:42:50.718054,0.4402951002120971,0.6460852026939392,-10.038249015808104,1
3269718,2024-02-06 10:42:50.778723,0.4020085632801056,0.6580497026443481,-10.050213813781738,1
3269794,2024-02-06 10:42:50.853640,0.4307234585285187,0.5527617931365967,-10.169858932495115,1
3269871,2024-02-06 10:42:50.928474,0.4450809061527252,0.5742979645729065,-10.143537521362305,1
3269948,2024-02-06 10:42:51.018673,0.3541503846645355,0.8518753051757812,-10.090893745422363,1
3270024,2024-02-06 10:42:51.093705,0.3780794739723205,1.0385221242904663,-11.820965766906738,1
3270100,2024-02-06 10:42:51.168659,-0.1507532149553299,5.106465816497803,-11.12941551208496,1
3270177,2024-02-06 10:42:51.243458,1.6080342531204224,3.979406118392944,-10.437865257263184,1
3270253,2024-02-06 10:42:51.318116,1.5649619102478027,4.642241477966309,-9.351485252380373,1
3270330,2024-02-06 10:42:51.393633,1.9334697723388672,5.917661666870117,-7.942061901092529,1
3270407,2024-02-06 10:42:51.468092,1.5458186864852903,5.2811479568481445,-8.368000030517578,1
3270483,2024-02-06 10:42:51.543682,1.6630711555480957,5.996627807617188,-10.026285171508787,1
3270559,2024-02-06 10:42:51.618112,1.6846072673797607,5.89373254776001,-9.684099197387695,1
3270636,2024-02-06 10:42:51.693276,2.108151912689209,4.852817535400391,-8.32492733001709,1
3270712,2024-02-06 10:42:51.783379,2.431194543838501,5.948769569396973,-7.781737327575684,1
3270789,2024-02-06 10:42:51.858209,1.0265575647354126,5.340970993041992,-7.513731479644775,1
3270866,2024-02-06 10:42:51.933257,0.1555390208959579,4.979641914367676,-6.920289993286133,1
3270942,2024-02-06 10:42:52.008195,0.3900440335273742,5.046643257141113,-6.817395210266113,1
3271018,2024-02-06 10:42:52.083101,0.746587336063385,4.685314178466797,-7.2576904296875,1
3271095,2024-02-06 10:42:52.157901,0.7418015003204346,6.202417850494385,-8.643183708190918,1
3271171,2024-02-06 10:42:52.233268,1.1246668100357056,4.517810344696045,-8.090422630310059,1
3271248,2024-02-06 10:42:52.308422,0.9093050956726074,5.099287033081055,-7.69080638885498,1
3271325,2024-02-06 10:42:52.383597,-1.3400285243988037,5.467794895172119,-8.195710182189941,1
3271401,2024-02-06 10:42:52.458641,-0.5862624645233154,4.371842861175537,-7.367763996124268,1
3271477,2024-02-06 10:42:52.548659,-1.0313433408737185,3.369214534759521,-8.906403541564941,1
3271554,2024-02-06 10:42:52.623283,-4.376628875732422,2.5891265869140625,-10.27754020690918,1
3271630,2024-02-06 10:42:52.698587,-5.075357913970947,4.8025665283203125,-9.179195404052734,0
3271707,2024-02-06 10:42:52.773653,-8.853759765625,7.748236179351807,-8.274676322937012,0
3271784,2024-02-06 10:42:52.848490,-3.3141777515411377,6.535031795501709,-6.398636341094971,0
3271860,2024-02-06 10:42:52.923346,-4.087087154388428,5.991841793060303,-5.534796237945557,0
3271936,2024-02-06 10:42:52.997930,-4.979641914367676,6.238311290740967,-3.7137932777404794,0
3272013,2024-02-06 10:42:53.073618,-4.950926780700684,6.1976318359375,-3.955476999282837,0
3272089,2024-02-06 10:42:53.148446,-4.950926780700684,7.877453327178955,-2.5101606845855717,0
3272166,2024-02-06 10:42:53.223432,-3.759258508682251,7.489802360534668,-1.8927903175354004,0
3272243,2024-02-06 10:42:53.313651,-1.2897775173187256,5.683156490325928,-1.0050214529037476,0
3272319,2024-02-06 10:42:53.388688,-1.995685338973999,7.915740013122559,-2.03157901763916,0
3272395,2024-02-06 10:42:53.463670,-3.49843168258667,10.114822387695312,-5.154324054718018,0
3272472,2024-02-06 10:42:53.538309,-0.1770751923322677,13.294997215270996,-0.6125844717025757,0
3272548,2024-02-06 10:42:53.613167,1.4596738815307615,9.389771461486816,-0.746587336063385,0
3272625,2024-02-06 10:42:53.688405,1.7348583936691284,10.540760040283203,-3.196925163269043,0
3272702,2024-02-06 10:42:53.762916,1.4118157625198364,11.655855178833008,-2.2732627391815186,0
3272778,2024-02-06 10:42:53.837920,1.356778860092163,11.07677173614502,-0.6939433217048645,0
3272854,2024-02-06 10:42:53.913606,1.4668526649475098,10.99062728881836,-0.4067943692207336,0
3272931,2024-02-06 10:42:54.003135,0.8399107456207275,10.42590045928955,-1.49317467212677,0
3273007,2024-02-06 10:42:54.108535,0.4953319728374481,9.310805320739746,-0.904519259929657,0
3273083,2024-02-06 10:42:54.198662,0.8925547003746033,7.446730136871338,-1.3711363077163696,0
3273160,2024-02-06 10:42:54.228604,0.5384043455123901,6.594854831695557,-2.148831367492676,0
3273237,2024-02-06 10:42:54.303591,0.7992312908172607,6.886789321899414,-2.4623024463653564,0
3273313,2024-02-06 10:42:54.378615,0.6269419193267822,8.083243370056152,-2.3282995223999023,0
3273390,2024-02-06 10:42:54.453594,0.4139730930328369,9.442415237426758,-1.2514909505844116,0
3273466,2024-02-06 10:42:54.528513,0.6221560835838318,9.913818359375,-0.4044014811515808,0
3273542,2024-02-06 10:42:54.618641,0.9069121479988098,9.758278846740724,0.0143574485555291,0
3273619,2024-02-06 10:42:54.677868,1.0026284456253052,9.504631042480469,0.3421858549118042,0
3273696,2024-02-06 10:42:54.752906,1.4812101125717163,9.751100540161133,0.8159816861152649,0
3273772,2024-02-06 10:42:54.843654,2.0483293533325195,9.083478927612305,1.2945632934570312,0
3273849,2024-02-06 10:42:54.918585,0.2010042816400528,9.195945739746094,1.4453164339065552,0
3273925,2024-02-06 10:42:54.993633,-0.6077986359596252,8.025814056396484,3.0868513584136963,0
3274001,2024-02-06 10:42:55.068584,-2.5747690200805664,7.997098922729492,1.275420069694519,0
3274078,2024-02-06 10:42:55.143609,-1.39745831489563,9.349091529846191,1.4907817840576172,0
3274155,2024-02-06 10:42:55.218613,-2.108151912689209,9.136122703552246,2.7446656227111816,0
3274231,2024-02-06 10:42:55.293619,-1.746822953224182,9.463951110839844,2.6609137058258057,0
3274308,2024-02-06 10:42:55.368604,-1.072022795677185,9.207910537719728,2.483838558197021,0
3274384,2024-02-06 10:42:55.443602,-0.667621374130249,9.246196746826172,3.046171903610229,0
3274460,2024-02-06 10:42:55.518498,-0.6317277550697327,8.600111961364746,3.563040256500244,0
3274537,2024-02-06 10:42:55.608611,-0.4379021823406219,8.827438354492188,3.287855625152588,0
3274614,2024-02-06 10:42:55.683065,-0.0430723465979099,9.380199432373049,4.242626190185547,0
3274690,2024-02-06 10:42:55.758054,-1.115095138549805,10.717835426330566,3.3955366611480717,0
3274767,2024-02-06 10:42:55.833024,0.5527617931365967,8.458930015563965,3.330928087234497,0
3274843,2024-02-06 10:42:55.908504,-0.0478581637144088,7.24811840057373,0.9140908718109132,0
3274919,2024-02-06 10:42:55.983580,0.5551546812057495,10.047821044921877,2.2397620677948,0
3274996,2024-02-06 10:42:56.057869,0.7896596789360046,9.195945739746094,3.2064969539642334,0
3275073,2024-02-06 10:42:56.133587,0.4977248907089233,8.9231538772583,3.153852939605713,0
3275149,2024-02-06 10:42:56.208635,0.4187589287757873,8.84658145904541,3.2711052894592285,0
3275226,2024-02-06 10:42:56.283581,0.8710185289382935,9.253376007080078,2.579555034637451,0
3275302,2024-02-06 10:42:56.373404,0.93323415517807,9.064335823059082,2.605876922607422,0
3275378,2024-02-06 10:42:56.448432,0.2823631465435028,11.124629974365234,2.292405843734741,0
3275455,2024-02-06 10:42:56.523477,-3.4386088848114014,8.135887145996094,2.6752712726593018,0
3275532,2024-02-06 10:42:56.598463,-1.56256902217865,10.00953483581543,2.0339717864990234,0
3275608,2024-02-06 10:42:56.673575,-1.8856115341186523,9.940139770507812,1.9813278913497925,0
3275685,2024-02-06 10:42:56.748556,-1.7228938341140747,9.21987533569336,2.4623024463653564,0
3275761,2024-02-06 10:42:56.823567,-1.7157150506973269,8.545074462890625,2.481445789337158,0
3275837,2024-02-06 10:42:56.898503,-1.5960696935653689,9.133729934692385,2.5819478034973145,0
3275914,2024-02-06 10:42:56.973995,-1.141417145729065,8.987762451171875,3.239997625350952,0
3275991,2024-02-06 10:42:57.048431,-0.6843717098236084,9.425664901733398,2.711164951324463,0
3276067,2024-02-06 10:42:57.124035,-0.4857603311538696,9.959283828735352,3.2232472896575928,0
3276144,2024-02-06 10:42:57.213522,-0.3661149442195892,8.781972885131836,3.811902523040772,0
3276220,2024-02-06 10:42:57.288586,0.2392908036708831,7.90856122970581,3.682685613632202,0
3276296,2024-02-06 10:42:57.363497,0.4546525478363037,9.186373710632324,3.8980472087860103,0
3276373,2024-02-06 10:42:57.438369,0.9140908718109132,9.262947082519531,4.838459968566895,0
3276450,2024-02-06 10:42:57.513573,0.4881532490253448,8.085636138916016,4.345520973205566,0
3276526,2024-02-06 10:42:57.588567,0.600619912147522,7.9013824462890625,3.811902523040772,0
3276603,2024-02-06 10:42:57.663558,0.7776951193809509,8.59293270111084,3.843010425567627,0
3276679,2024-02-06 10:42:57.738416,0.4642241597175598,9.138516426086426,4.271340847015381,0
3276755,2024-02-06 10:42:57.813513,-0.2823631465435028,10.26078987121582,4.883925437927246,0
3276832,2024-02-06 10:42:57.903562,-1.2873845100402832,9.411307334899902,0.7753022313117981,0
3276909,2024-02-06 10:42:57.978583,-0.2727915346622467,10.497687339782717,3.792759418487549,0
3276985,2024-02-06 10:42:58.053660,-0.4163660109043121,7.745843410491943,3.988977909088135,0
3277062,2024-02-06 10:42:58.128583,-1.021771788597107,5.307470321655273,3.40271520614624,0
3277138,2024-02-06 10:42:58.203566,-3.400322437286377,6.525460243225098,3.0653152465820312,0
3277215,2024-02-06 10:42:58.278635,-3.7114005088806152,6.539817810058594,7.013613700866699,0
3277291,2024-02-06 10:42:58.353596,-1.1677391529083252,5.166288375854492,2.837989091873169,0
3277368,2024-02-06 10:42:58.428629,0.2727915346622467,3.3117847442626958,-0.7178724408149719,0
3277445,2024-02-06 10:42:58.503560,3.421858549118042,13.48882293701172,-1.4142086505889893,0
3277521,2024-02-06 10:42:58.578597,1.9406484365463257,12.957597732543944,1.4453164339065552,0
3277597,2024-02-06 10:42:58.668562,3.644398927688599,11.294526100158691,-1.2060257196426392,0
3277674,2024-02-06 10:42:58.742864,4.041621685028076,10.210538864135742,-2.167974710464477,0
3277750,2024-02-06 10:42:58.817884,3.598933696746826,6.69296407699585,-0.1435744911432266,0
3277827,2024-02-06 10:42:58.893671,-2.9695990085601807,6.733643531799316,0.1483602970838546,0
3277904,2024-02-06 10:42:58.968560,-8.157423973083496,10.464186668395996,-1.4405306577682495,0
3277980,2024-02-06 10:42:59.043590,-0.4402951002120971,8.509181022644043,-4.831281661987305,0
3278056,2024-02-06 10:42:59.118563,-5.61615514755249,7.918132781982422,-2.483838558197021,0
3278133,2024-02-06 10:42:59.193578,-3.027028799057007,5.498902797698975,-3.043779134750366,0
3278209,2024-02-06 10:42:59.268406,-0.3230426013469696,7.982741355895996,-13.543859481811523,0
3278286,2024-02-06 10:42:59.343583,-13.09877872467041,2.8858470916748047,-8.291426658630371,0
3278363,2024-02-06 10:42:59.433149,0.8088029623031616,0.9715206623077391,-14.051156044006348,0
3278439,2024-02-06 10:42:59.508580,4.175624847412109,6.743215084075928,-12.445514678955078,0
3278515,2024-02-06 10:42:59.583398,2.30915641784668,4.113409042358398,-10.646048545837402,0
3278592,2024-02-06 10:42:59.658425,3.4242515563964844,3.1155662536621094,-8.214853286743164,0
3278668,2024-02-06 10:42:59.733536,3.3404996395111084,5.369685649871826,-8.647970199584961,1
3278745,2024-02-06 10:42:59.808562,4.16605281829834,6.769536972045898,-10.054999351501465,1
3278822,2024-02-06 10:42:59.883543,4.496274471282959,7.741057872772217,-6.9872918128967285,1
3278898,2024-02-06 10:42:59.958359,4.761887073516846,5.5539398193359375,-6.7838945388793945,1
3278974,2024-02-06 10:43:00.033344,4.836067199707031,5.608976364135742,-7.303155422210693,1
3279051,2024-02-06 10:43:00.108559,4.345520973205566,3.886082649230957,-7.035149574279785,1
3279127,2024-02-06 10:43:00.198581,4.580026149749756,3.98419189453125,-6.630748271942139,1
3279204,2024-02-06 10:43:00.273568,7.166759967803955,7.8726677894592285,-6.982505798339844,1
3279281,2024-02-06 10:43:00.363434,5.460616111755371,5.0346784591674805,-10.303862571716309,1
3279357,2024-02-06 10:43:00.423436,4.532167911529541,5.685549736022949,-7.037542819976807,1
3279433,2024-02-06 10:43:00.497812,4.568061351776123,5.417543888092041,-7.549624919891357,1
3279510,2024-02-06 10:43:00.573342,4.371842861175537,5.068179130554199,-6.882003784179688,1
3279586,2024-02-06 10:43:00.648393,4.618312835693359,4.92221212387085,-7.779344081878662,1
3279663,2024-02-06 10:43:00.723203,4.589597702026367,4.982034683227539,-7.516124248504639,1
3279740,2024-02-06 10:43:00.798570,4.606348037719727,4.96528434753418,-7.492195129394531,1
3279816,2024-02-06 10:43:00.873604,4.735565185546875,4.575240135192871,-7.776951313018799,1
3279892,2024-02-06 10:43:00.963548,4.642241477966309,4.690099716186523,-7.298369884490967,1
3279969,2024-02-06 10:43:01.038569,4.931783676147461,5.020321369171143,-7.609447956085205,1
3280045,2024-02-06 10:43:01.113443,5.819552421569824,5.276362419128418,-8.205282211303711,1
3280122,2024-02-06 10:43:01.188905,7.401264667510986,4.797780513763428,-7.779344081878662,1
3280199,2024-02-06 10:43:01.263565,5.046643257141113,4.620705604553223,-6.968148231506348,1
3280275,2024-02-06 10:43:01.338561,6.357956886291504,4.721207618713379,-5.79083776473999,1
3280351,2024-02-06 10:43:01.413407,4.319199085235596,5.539582252502441,-6.403421878814697,1
3280428,2024-02-06 10:43:01.488561,4.658992290496826,5.206967830657959,-6.606819152832031,1
3280504,2024-02-06 10:43:01.563592,4.577633380889893,7.145223617553711,-6.587676048278809,1
3280581,2024-02-06 10:43:01.638372,4.491488456726074,6.362742424011231,-7.252904415130615,1
3280658,2024-02-06 10:43:01.728538,3.5534684658050537,6.300527095794678,-6.018163681030273,1
3280734,2024-02-06 10:43:01.803554,4.429272651672363,5.230896949768066,-5.183038711547852,1
3280811,2024-02-06 10:43:01.878561,3.642006158828736,5.6807637214660645,-6.042092800140381,1
3280887,2024-02-06 10:43:01.953523,2.5101606845855717,5.338577747344971,-6.776715755462647,1
3280963,2024-02-06 10:43:02.028532,1.6702498197555542,5.690335273742676,-5.79801607131958,1
3281040,2024-02-06 10:43:02.103531,2.4431591033935547,5.996627807617188,-6.99686336517334,1
3281117,2024-02-06 10:43:02.178528,-0.0837517827749252,7.109330177307129,-8.363213539123535,1
3281193,2024-02-06 10:43:02.253543,-0.7298369407653809,6.898754119873047,-7.286405086517334,1
3281270,2024-02-06 10:43:02.328610,-1.1868823766708374,8.590539932250977,-8.375178337097168,1
3281346,2024-02-06 10:43:02.403516,-0.7848738431930542,8.05452823638916,-7.719521522521973,1
3281422,2024-02-06 10:43:02.493548,-0.7753022313117981,8.21963882446289,-5.996627807617188,1
3281499,2024-02-06 10:43:02.568551,0.4474738240242004,8.535503387451172,-7.22179651260376,1
3281576,2024-02-06 10:43:02.643231,-0.8758043646812439,9.595561027526855,-6.977719783782959,1
3281652,2024-02-06 10:43:02.718074,-0.7776951193809509,9.873138427734377,-4.962891578674316,1
3281729,2024-02-06 10:43:02.793566,-0.7035149931907654,8.233996391296387,-4.34073543548584,1
3281805,2024-02-06 10:43:02.868556,-0.4259376525878906,7.049507141113281,-4.417308330535889,1
3281881,2024-02-06 10:43:02.943586,-1.246705174446106,8.068885803222656,-2.2660839557647705,1
3281958,2024-02-06 10:43:03.018453,-0.8949476480484009,7.910953998565674,0.5120823383331299,1
3282035,2024-02-06 10:43:03.093558,0.4139730930328369,8.760436058044434,2.3785505294799805,1
3282111,2024-02-06 10:43:03.168520,-0.0215361732989549,8.743685722351074,1.5864980220794678,1
3282188,2024-02-06 10:43:03.243538,0.9164838194847108,8.542681694030762,1.6104271411895752,1
3282264,2024-02-06 10:43:03.333385,4.716422080993652,11.079164505004885,-1.464459776878357,1
3282340,2024-02-06 10:43:03.408386,3.591755151748657,12.38808536529541,0.4259376525878906,1
3282417,2024-02-06 10:43:03.483519,3.54150390625,12.397656440734863,-0.0957163274288177,1
3282494,2024-02-06 10:43:03.558517,3.5391111373901367,13.213638305664062,-0.9475916028022766,1
3282570,2024-02-06 10:43:03.633149,3.16821026802063,11.057628631591797,-1.5386399030685425,1
3282647,2024-02-06 10:43:03.708524,2.7805593013763428,8.384750366210938,-2.6680924892425537,1
3282723,2024-02-06 10:43:03.782807,2.641770601272583,7.1356520652771,-2.060293912887573,1
3282799,2024-02-06 10:43:03.857755,2.5628044605255127,6.51828145980835,-1.2562767267227173,0
3282876,2024-02-06 10:43:03.933357,2.68245005607605,6.29334831237793,-1.8281817436218264,0
3282953,2024-02-06 10:43:04.068220,1.4692455530166626,6.872432231903076,-0.3350071310997009,0
3283029,2024-02-06 10:43:04.098730,0.8877689242362976,9.29644775390625,0.3661149442195892,0
3283106,2024-02-06 10:43:04.173529,0.3900440335273742,9.832459449768066,1.7946810722351074,0
3283182,2024-02-06 10:43:04.248611,0.1196454018354415,9.023656845092772,2.3976938724517822,0
3283258,2024-02-06 10:43:04.323521,0.3038993179798126,9.030835151672363,2.242154836654663,0
3283335,2024-02-06 10:43:04.398544,1.5673547983169556,11.600818634033203,2.495803117752075,0
3283412,2024-02-06 10:43:04.473531,-0.0909305065870285,8.145459175109863,0.5240468978881836,0
3283488,2024-02-06 10:43:04.548372,1.4907817840576172,9.033227920532228,0.6389064788818359,0
3283565,2024-02-06 10:43:04.623568,-0.2273262739181518,9.703242301940918,0.363722026348114,0
3283641,2024-02-06 10:43:04.698513,-0.9906639456748962,9.923389434814451,2.2230117321014404,0
3283717,2024-02-06 10:43:04.832764,-0.5072965025901794,9.282090187072754,2.002864122390747,0
3283794,2024-02-06 10:43:04.862771,-0.8686256408691406,9.009299278259276,2.5245180130004883,0
3283871,2024-02-06 10:43:04.938559,-1.2825987339019775,8.813080787658691,2.945669889450073,0
3283947,2024-02-06 10:43:05.028330,-1.4357448816299438,8.915975570678711,2.957634449005127,0
3284024,2024-02-06 10:43:05.088127,-1.9310768842697144,8.896832466125488,2.5029819011688232,0
3284100,2024-02-06 10:43:05.163477,-1.2060257196426392,9.413700103759766,2.495803117752075,0
3284176,2024-02-06 10:43:05.238539,-0.4474738240242004,10.10285758972168,1.6678569316864014,0
3284253,2024-02-06 10:43:05.313185,0.9284483194351196,8.834616661071777,1.6056413650512695,0
3284330,2024-02-06 10:43:05.388512,0.5671192407608032,9.65299129486084,2.2230117321014404,0
3284406,2024-02-06 10:43:05.463552,0.2919347882270813,9.760672569274902,2.1201164722442627,0
3284483,2024-02-06 10:43:05.598503,0.5264397859573364,8.901618003845215,2.3450498580932617,0
3284559,2024-02-06 10:43:05.628488,0.9930568337440492,9.459165573120115,2.2038683891296387,0
3284635,2024-02-06 10:43:05.703433,0.5910483002662659,9.327555656433104,2.9337053298950195,0
3284712,2024-02-06 10:43:05.778523,0.5719050168991089,9.069121360778809,2.2804415225982666,0
3284789,2024-02-06 10:43:05.853221,0.2751844227313995,9.22705364227295,2.4551236629486084,0
3284865,2024-02-06 10:43:05.928214,0.5575475692749023,9.38259220123291,2.964813232421875,0
3284942,2024-02-06 10:43:06.003157,0.7106937170028687,9.040407180786133,3.464931011199951,0
3285018,2024-02-06 10:43:06.078570,0.806410014629364,8.753257751464844,2.768594741821289,0
3285094,2024-02-06 10:43:06.153513,0.806410014629364,9.042799949645996,2.9887421131134038,0
3285171,2024-02-06 10:43:06.228474,0.8111958503723145,9.593168258666992,3.756865739822388,0
3285248,2024-02-06 10:43:06.303505,0.7035149931907654,9.088264465332031,3.6348273754119873,0
3285324,2024-02-06 10:43:06.393505,0.9882710576057434,8.714971542358398,3.728150844573975,0
3285401,2024-02-06 10:43:06.468506,0.3852581977844238,9.29644775390625,3.4170727729797363,0
3285477,2024-02-06 10:43:06.543493,-0.5479759573936462,8.346463203430176,3.1729960441589355,0
3285553,2024-02-06 10:43:06.618486,-0.9428057670593262,9.404129028320312,4.175624847412109,0
3285630,2024-02-06 10:43:06.693354,-2.060293912887573,8.446965217590332,3.103601694107056,0
3285707,2024-02-06 10:43:06.768341,-1.7037506103515625,9.315590858459473,2.61305570602417,0
3285783,2024-02-06 10:43:06.843501,-1.689393162727356,8.820259094238281,2.703986167907715,0
3285860,2024-02-06 10:43:06.918478,-1.426173210144043,8.762829780578613,3.218461275100708,0
3285936,2024-02-06 10:43:07.008474,-1.1366313695907593,8.839402198791504,3.034207344055176,0
3286012,2024-02-06 10:43:07.068154,-1.335242748260498,8.84658145904541,3.6635422706604,0
3286089,2024-02-06 10:43:07.158707,-1.0768086910247805,9.55727481842041,2.9337053298950195,0
3286166,2024-02-06 10:43:07.233048,-1.1605603694915771,9.04519271850586,4.170838832855225,0
3286243,2024-02-06 10:43:07.308482,-0.6341206431388855,10.966697692871094,3.943512439727783,0
3286319,2024-02-06 10:43:07.383431,-0.1914326548576355,10.289505004882812,2.5628044605255127,0
3286395,2024-02-06 10:43:07.458497,-0.0622156113386154,7.480230808258057,0.8805902004241943,0
3286472,2024-02-06 10:43:07.533486,0.7537660598754883,10.524009704589844,1.8257888555526731,0
3286548,2024-02-06 10:43:07.608476,-0.3038993179798126,9.79417324066162,4.091872692108154,0
3286625,2024-02-06 10:43:07.683423,0.3374000489711761,8.171781539916992,4.615919589996338,0
3286702,2024-02-06 10:43:07.758492,0.016750356182456,7.073436260223389,4.084693908691406,0
3286778,2024-02-06 10:43:07.908371,-1.8425391912460327,4.4268798828125,3.0102784633636475,0
3286854,2024-02-06 10:43:07.922975,3.2280330657958984,3.261533737182617,4.058372020721436,0
3286931,2024-02-06 10:43:07.998503,2.940884113311768,2.9672060012817383,0.2177546322345733,0
3287007,2024-02-06 10:43:08.072718,-2.1823322772979736,10.99780559539795,-3.6372203826904297,0
3287083,2024-02-06 10:43:08.148472,-0.6843717098236084,10.193788528442385,-1.2060257196426392,0
3287160,2024-02-06 10:43:08.238516,0.5838695764541626,12.562767028808594,-2.311549186706543,0
3287237,2024-02-06 10:43:08.298566,-0.765730619430542,11.438100814819336,-1.277812957763672,0
3287313,2024-02-06 10:43:08.373250,-0.3421858549118042,10.926018714904783,-2.0914015769958496,0
3287390,2024-02-06 10:43:08.448011,-0.0047858161851763,8.521145820617676,-0.9140908718109132,1
3287466,2024-02-06 10:43:08.522878,-0.3015064299106598,4.6613850593566895,1.25866961479187,1
3287542,2024-02-06 10:43:08.658507,0.4594383537769317,1.1581674814224243,-2.3641932010650635,1
3287619,2024-02-06 10:43:08.687869,8.291426658630371,2.5628044605255127,-34.05586624145508,1
3287696,2024-02-06 10:43:08.762758,-5.635298728942871,29.095369338989254,-13.747257232666016,1
3287772,2024-02-06 10:43:08.837783,1.177310824394226,0.0598227009177207,-11.706106185913086,1
3287849,2024-02-06 10:43:08.913124,-7.642948627471924,-0.0933234170079231,-9.552489280700684,1
3287925,2024-02-06 10:43:08.988445,-2.747058391571045,0.9667348861694336,-8.198102951049805,1
3288001,2024-02-06 10:43:09.063360,-1.710929274559021,0.952377438545227,-10.53118896484375,1
3288078,2024-02-06 10:43:09.138451,-3.886082649230957,1.6295703649520874,-10.562295913696287,1
3288155,2024-02-06 10:43:09.213469,-3.3476784229278564,1.464459776878357,-10.375649452209473,1
3288231,2024-02-06 10:43:09.303444,-5.580261707305908,2.2995846271514893,-9.23662567138672,1
3288308,2024-02-06 10:43:09.363426,-4.615919589996338,2.359407424926758,-10.72022819519043,1
3288384,2024-02-06 10:43:09.453497,-5.405579566955566,2.747058391571045,-10.44265079498291,1
3288460,2024-02-06 10:43:09.528509,-4.761887073516846,3.9459054470062256,-7.540053367614746,1
3288537,2024-02-06 10:43:09.603142,-4.154088497161865,2.010042905807495,-7.630983829498291,1
3288614,2024-02-06 10:43:09.678116,-5.2811479568481445,2.47426700592041,-9.222268104553224,1
3288690,2024-02-06 10:43:09.753098,-6.666641712188721,3.80233097076416,-10.39718532562256,1
3288767,2024-02-06 10:43:09.843254,-4.752315521240234,2.7518444061279297,-8.875295639038086,1
3288843,2024-02-06 10:43:09.903445,-3.857367753982544,1.720500946044922,-7.820023536682129,1
3288919,2024-02-06 10:43:09.978272,-3.68029260635376,1.6271774768829346,-7.944454669952393,1
3288996,2024-02-06 10:43:10.068754,-3.4386088848114014,1.6534994840621948,-10.502473831176758,1
3289073,2024-02-06 10:43:10.128930,-2.804488182067871,0.7609447836875916,-9.629061698913574,1
3289149,2024-02-06 10:43:10.218214,-2.30915641784668,0.6867645978927612,-9.674527168273926,1
3289226,2024-02-06 10:43:10.293336,-2.017221450805664,0.4187589287757873,-9.92099666595459,1
3289302,2024-02-06 10:43:10.368476,-1.8114314079284668,0.3302213251590729,-10.06935691833496,1
3289378,2024-02-06 10:43:10.443497,-1.844932198524475,0.3852581977844238,-9.942533493041992,1
3289455,2024-02-06 10:43:10.532757,-2.1177237033843994,0.3374000489711761,-10.059785842895508,1
3289532,2024-02-06 10:43:10.592727,-5.259612083435059,4.742743968963623,-13.972189903259276,1
3289608,2024-02-06 10:43:10.683418,-3.08206558227539,-2.9839563369750977,-11.13898754119873,1
3289685,2024-02-06 10:43:10.743462,-2.995920896530152,2.816452741622925,-10.06935691833496,1
3289761,2024-02-06 10:43:10.832745,-4.199553489685059,2.625020265579224,-9.564454078674316,1
3289837,2024-02-06 10:43:10.893126,-3.2208542823791504,2.6585209369659424,-7.922918796539307,1
3289914,2024-02-06 10:43:10.983436,-2.8762755393981934,4.10623025894165,-7.779344081878662,1
3289991,2024-02-06 10:43:11.058447,-1.9430413246154783,3.828652858734131,-8.351249694824219,1
3290067,2024-02-06 10:43:11.132876,-2.775773286819458,4.5010600090026855,-9.736742973327637,1
3290144,2024-02-06 10:43:11.208459,-2.156010150909424,5.45104455947876,-9.581204414367676,1
3290220,2024-02-06 10:43:11.283419,-1.651106595993042,5.817159652709961,-9.19355297088623,1
3290296,2024-02-06 10:43:11.358477,-1.591283917427063,4.3239850997924805,-7.03993558883667,1
3290373,2024-02-06 10:43:11.432890,-2.837989091873169,4.888711452484131,-7.133258819580078,1
3290450,2024-02-06 10:43:11.508419,-1.3735291957855225,5.742979526519775,-7.365371227264404,1
3290526,2024-02-06 10:43:11.598502,-0.3421858549118042,6.113880157470703,-7.068650722503662,1
3290603,2024-02-06 10:43:11.658314,-0.8758043646812439,5.489331245422363,-6.578104496002197,1
3290679,2024-02-06 10:43:11.748168,-3.8597607612609854,3.7114005088806152,-10.35650634765625,1
3290755,2024-02-06 10:43:11.823418,3.105994701385498,6.776715755462647,-9.89706802368164,1
3290832,2024-02-06 10:43:11.898469,1.1294525861740112,6.338813304901123,-8.779580116271973,0
3290909,2024-02-06 10:43:11.973351,2.902597427368164,6.393850326538086,-10.646048545837402,0
3290985,2024-02-06 10:43:12.048456,3.723365068435669,6.121058940887451,-8.49003791809082,0
3291062,2024-02-06 10:43:12.123437,4.876746654510498,6.85807466506958,-8.028206825256348,0
3291138,2024-02-06 10:43:12.198305,4.467559337615967,6.259847640991211,-5.781265735626221,0
3291214,2024-02-06 10:43:12.273457,4.666170597076416,7.889418125152588,-4.536953926086426,0
3291291,2024-02-06 10:43:12.363475,5.171074390411377,7.671663284301758,-3.275891065597534,0
3291368,2024-02-06 10:43:12.423425,3.752079963684082,7.915740013122559,-2.072258472442627,0
3291444,2024-02-06 10:43:12.513452,2.5819478034973145,7.741057872772217,-2.141652822494507,0
3291521,2024-02-06 10:43:12.588446,1.2203831672668457,7.063864707946777,-0.3278284072875976,0
3291597,2024-02-06 10:43:12.663466,0.806410014629364,9.81092357635498,-1.2323477268218994,0
3291674,2024-02-06 10:43:12.738483,0.0717872455716133,11.189238548278809,-0.6269419193267822,0
3291750,2024-02-06 10:43:12.813162,-1.4501023292541504,8.525931358337402,0.2871489822864532,0
3291827,2024-02-06 10:43:12.888185,-2.9193477630615234,8.652755737304688,-3.366821765899658,0
3291904,2024-02-06 10:43:12.963202,-3.577397584915161,12.098543167114258,-2.2110471725463867,0
3291980,2024-02-06 10:43:13.038610,-2.191903829574585,12.347405433654783,-1.8329676389694212,0
3292056,2024-02-06 10:43:13.128323,-3.0892443656921387,10.289505004882812,-2.900204658508301,0
3292133,2024-02-06 10:43:13.188422,-2.754237174987793,9.317984580993652,-3.725757837295532,0
3292209,2024-02-06 10:43:13.278439,-1.718108057975769,7.891810894012451,-2.065079689025879,0
3292286,2024-02-06 10:43:13.353397,-0.9739136099815368,6.8126091957092285,-1.074415683746338,0
3292363,2024-02-06 10:43:13.428447,-0.0933234170079231,6.623569488525391,0.0023929080925881,0
3292439,2024-02-06 10:43:13.503434,0.5455830693244934,6.879610538482666,-0.368507832288742,0
3292515,2024-02-06 10:43:13.578463,0.0191432647407054,9.176802635192873,-0.1675035655498504,0
3292592,2024-02-06 10:43:13.653407,1.9215052127838133,11.14616584777832,-0.4283305406570434,0
3292668,2024-02-06 10:43:13.728400,3.701828718185425,9.057157516479492,-0.6317277550697327,0
3292745,2024-02-06 10:43:13.802805,2.3306925296783447,9.55727481842041,1.074415683746338,0
3292822,2024-02-06 10:43:13.893159,1.3256710767745972,8.633612632751465,0.1387886703014373,0
3292898,2024-02-06 10:43:13.953434,1.366350531578064,8.389535903930664,2.1033661365509038,0
3292974,2024-02-06 10:43:14.043423,1.524282455444336,8.286641120910645,2.1249024868011475,0
3293051,2024-02-06 10:43:14.118399,0.8088029623031616,9.672134399414062,2.9695990085601807,0
3293127,2024-02-06 10:43:14.193405,1.4692455530166626,9.033227920532228,2.0411505699157715,0
3293204,2024-02-06 10:43:14.268400,0.4857603311538696,9.14808750152588,3.601326704025269,0
3293281,2024-02-06 10:43:14.343311,0.2775773406028747,9.72238540649414,3.1658174991607666,0
3293357,2024-02-06 10:43:14.418204,0.4642241597175598,9.770243644714355,3.5151820182800293,0
3293433,2024-02-06 10:43:14.508239,0.1459673941135406,9.303627014160156,2.7446656227111816,0
3293510,2024-02-06 10:43:14.568406,0.2033971846103668,8.662327766418457,2.5460541248321533,0
3293586,2024-02-06 10:43:14.658476,-0.5742979645729065,8.729329109191895,1.9310768842697144,0
3293663,2024-02-06 10:43:14.718416,-0.9164838194847108,9.708027839660645,2.648949146270752,0
3293740,2024-02-06 10:43:14.808463,-1.112702250480652,9.004512786865234,3.26392674446106,0
3293816,2024-02-06 10:43:14.882669,-1.0169858932495115,8.880082130432129,2.711164951324463,0
3293892,2024-02-06 10:43:14.957671,-1.0241646766662598,8.832223892211914,3.062922477722168,0
3293969,2024-02-06 10:43:15.033396,-1.079201579093933,8.695828437805176,3.5941479206085205,0
3294045,2024-02-06 10:43:15.108327,-0.8566610813140869,8.884867668151855,3.900440216064453,0
3294122,2024-02-06 10:43:15.183376,-0.8758043646812439,9.353878021240234,4.326377868652344,0
3294199,2024-02-06 10:43:15.258057,-0.0813588723540306,12.203831672668455,3.7903664112091056,0
3294275,2024-02-06 10:43:15.333350,0.93323415517807,9.344305992126465,2.1895108222961426,0
3294351,2024-02-06 10:43:15.423398,1.6056413650512695,7.597483158111572,0.9763064980506896,0
3294428,2024-02-06 10:43:15.483329,0.2775773406028747,10.11960792541504,2.0961875915527344,0
3294504,2024-02-06 10:43:15.573420,0.3541503846645355,8.997334480285645,3.259140729904175,0
3294581,2024-02-06 10:43:15.648257,0.2512553632259369,8.22921085357666,3.1706032752990723,0
3294658,2024-02-06 10:43:15.723391,-0.0119645409286022,8.844188690185547,3.6659352779388423,0
3294734,2024-02-06 10:43:15.798452,-0.308685153722763,8.51636028289795,3.816688299179077,0
3294810,2024-02-06 10:43:15.873396,-0.4570454359054565,8.66472053527832,4.328770637512207,0
3294887,2024-02-06 10:43:15.948302,-1.0457007884979248,9.253376007080078,5.412757873535156,0
3294963,2024-02-06 10:43:16.038401,-0.5001177787780762,11.296918869018556,4.34073543548584,0
3295040,2024-02-06 10:43:16.098256,-1.1270596981048584,7.733879089355469,1.7085363864898682,0
3295117,2024-02-06 10:43:16.188393,-0.7992312908172607,8.770008087158203,1.957398772239685,0
3295193,2024-02-06 10:43:16.248656,-1.229954719543457,9.822887420654297,3.759258508682251,0
3295269,2024-02-06 10:43:16.338328,-0.8566610813140869,8.554646492004395,2.840381860733032,0
3295346,2024-02-06 10:43:16.427747,-1.5051392316818235,8.729329109191895,4.084693908691406,0
3295422,2024-02-06 10:43:16.488404,-1.3448143005371094,9.39216423034668,2.730308055877685,0
3295499,2024-02-06 10:43:16.563456,-1.9262909889221191,8.509181022644043,3.512789011001587,0
3295576,2024-02-06 10:43:16.638378,-1.0098072290420532,9.38259220123291,4.357485771179199,0
3295652,2024-02-06 10:43:16.713398,-1.6606782674789429,11.584068298339844,5.0131425857543945,0
3295728,2024-02-06 10:43:16.788421,1.543425679206848,7.516124248504639,2.488624334335327,0
3295805,2024-02-06 10:43:16.863494,0.5240468978881836,8.377571105957031,1.39745831489563,0
3295881,2024-02-06 10:43:16.953448,1.0959519147872925,10.323005676269531,2.703986167907715,0
3295958,2024-02-06 10:43:17.013476,1.0696299076080322,8.827438354492188,3.2854628562927246,0
3296035,2024-02-06 10:43:17.103257,0.7035149931907654,8.573789596557617,2.7231295108795166,0
3296111,2024-02-06 10:43:17.178053,0.8423036336898804,8.901618003845215,3.1658174991607666,0
3296188,2024-02-06 10:43:17.253382,0.1579319387674331,8.834616661071777,3.821474313735962,0
3296264,2024-02-06 10:43:17.328476,-0.5120823383331299,8.978191375732422,4.314413070678711,0
3296340,2024-02-06 10:43:17.403389,-2.254119396209717,11.189238548278809,4.496274471282959,0
3296417,2024-02-06 10:43:17.477655,-0.8805902004241943,10.136358261108398,3.180174827575684,0
3296494,2024-02-06 10:43:17.553002,-0.6891575455665588,7.805665969848633,0.6580497026443481,0
3296570,2024-02-06 10:43:17.628424,-0.8207674622535706,9.411307334899902,2.275655508041382,0
3296647,2024-02-06 10:43:17.718400,-1.3926725387573242,9.47113037109375,3.974620342254639,0
3296723,2024-02-06 10:43:17.778283,-0.7896596789360046,8.614469528198242,2.244547843933105,0
3296799,2024-02-06 10:43:17.868403,-1.6104271411895752,8.487645149230957,3.26392674446106,0
3296876,2024-02-06 10:43:17.943359,-1.7085363864898682,8.793937683105469,3.436216115951538,0
3296953,2024-02-06 10:43:18.018360,-1.5458186864852903,8.626433372497559,3.49843168258667,0
3297029,2024-02-06 10:43:18.093358,-1.7516087293624878,8.454144477844238,3.704221725463867,0
3297106,2024-02-06 10:43:18.168381,-1.986113667488098,8.877689361572266,3.787973403930664,0
3297182,2024-02-06 10:43:18.243431,-1.4477094411849976,8.997334480285645,3.369214534759521,0
3297258,2024-02-06 10:43:18.318360,-1.7851094007492063,9.987998008728027,1.6606782674789429,0
3297335,2024-02-06 10:43:18.393413,1.1988469362258911,7.965991020202637,1.1462029218673706,0
3297412,2024-02-06 10:43:18.483312,0.2871489822864532,9.167230606079102,-0.7226582169532776,0
3297488,2024-02-06 10:43:18.558368,0.540797233581543,10.583832740783691,-0.3756865561008453,0
3297565,2024-02-06 10:43:18.633329,0.540797233581543,8.643183708190918,-0.2656128108501434,0
3297641,2024-02-06 10:43:18.707583,0.7561589479446411,8.7843656539917,-0.6915504336357117,0
3297717,2024-02-06 10:43:18.782644,-0.205790102481842,8.312962532043457,-1.3113136291503906,0
3297794,2024-02-06 10:43:18.857641,0.5647262930870056,8.60250473022461,-1.6630711555480957,0
3297871,2024-02-06 10:43:18.933192,0.0789659693837165,9.320377349853516,-3.5391111373901367,0
3297947,2024-02-06 10:43:19.008381,-0.1220383122563362,9.21748161315918,-2.823631525039673,0
3298024,2024-02-06 10:43:19.083343,-1.081594467163086,9.32277011871338,-4.441237449645996,0
3298100,2024-02-06 10:43:19.158373,-1.0480937957763672,9.222268104553224,-4.8097453117370605,0
3298176,2024-02-06 10:43:19.248361,0.0143574485555291,9.595561027526855,-4.714028835296631,0
3298253,2024-02-06 10:43:19.323366,-1.2060257196426392,10.46897315979004,-5.362506866455078,0
3298330,2024-02-06 10:43:19.398157,-1.7922881841659546,10.756121635437012,-4.728386402130127,0
3298406,2024-02-06 10:43:19.473370,-2.7374868392944336,11.131808280944824,-4.752315521240234,0
3298483,2024-02-06 10:43:19.548241,-1.464459776878357,13.677863121032717,-1.6558923721313477,0
3298559,2024-02-06 10:43:19.623378,-1.5123178958892822,8.095208168029785,-0.4259376525878906,0
3298635,2024-02-06 10:43:19.698315,-1.3926725387573242,8.095208168029785,-0.6125844717025757,0
3298712,2024-02-06 10:43:19.773334,-1.5003533363342283,9.597954750061035,1.5960696935653689,0
3298789,2024-02-06 10:43:19.848058,-1.6989647150039673,9.674527168273926,2.0124356746673584,0
3298865,2024-02-06 10:43:19.923337,-1.0624512434005735,8.317748069763184,3.8477962017059326,0
3298942,2024-02-06 10:43:19.998189,-0.8973405361175537,7.939669132232666,4.223482608795166,0
3299018,2024-02-06 10:43:20.088144,-1.4070299863815308,8.248353958129883,4.398165225982666,0
3299094,2024-02-06 10:43:20.163342,-1.5936768054962158,8.183745384216309,4.919818878173828,0
3299171,2024-02-06 10:43:20.238351,-1.5458186864852903,7.946847915649414,5.238075733184815,0
3299248,2024-02-06 10:43:20.312958,-1.2132043838500977,7.671663284301758,5.675978183746338,0
3299324,2024-02-06 10:43:20.388356,-1.237133502960205,7.413229465484619,5.745372295379639,0
3299401,2024-02-06 10:43:20.463314,-2.30915641784668,6.748000621795654,6.345992088317871,0
3299477,2024-02-06 10:43:20.538376,-2.6465563774108887,6.7408223152160645,6.010984897613525,0
3299553,2024-02-06 10:43:20.612627,-2.2230117321014404,6.568532943725586,6.274205207824707,0
3299630,2024-02-06 10:43:20.688373,-1.9478272199630735,6.444101333618164,6.563746929168701,0
3299707,2024-02-06 10:43:20.778352,-1.8712540864944456,6.472816467285156,6.7838945388793945,0
3299784,2024-02-06 10:43:20.853332,-2.720736503601074,6.077986717224121,7.877453327178955,0
3299860,2024-02-06 10:43:20.928329,-2.593912363052368,5.4342942237854,8.181352615356445,0
3299936,2024-02-06 10:43:21.003274,-3.0102784633636475,4.86956787109375,7.750629425048828,0
3300013,2024-02-06 10:43:21.078247,-3.129923820495605,4.716422080993652,7.365371227264404,0
3300089,2024-02-06 10:43:21.153323,-4.02008581161499,3.780794858932495,7.657305717468262,0
3300166,2024-02-06 10:43:21.228396,-5.04425048828125,3.007885456085205,7.513731479644775,0
3300243,2024-02-06 10:43:21.303344,-3.3333208560943604,3.4098939895629883,8.375178337097168,0
3300319,2024-02-06 10:43:21.378360,-2.809274196624756,1.6678569316864014,8.530716896057129,0
3300395,2024-02-06 10:43:21.453340,-2.172760486602783,1.079201579093933,9.298840522766112,0
3300472,2024-02-06 10:43:21.528371,-2.354621648788452,-0.1483602970838546,9.420879364013672,0
3300548,2024-02-06 10:43:21.618308,-7.659698963165283,-2.8690967559814453,12.833166122436523,0
3300625,2024-02-06 10:43:21.693337,-0.3038993179798126,-5.405579566955566,6.324456214904785,0
3300702,2024-02-06 10:43:21.768204,-4.627884387969971,-3.352464199066162,8.384750366210938,0
3300778,2024-02-06 10:43:21.843351,-2.6752712726593018,-4.189981937408447,8.805901527404785,0
3300854,2024-02-06 10:43:21.918196,-1.6367491483688354,-3.278284072875977,9.9832124710083,0
3300931,2024-02-06 10:43:21.993386,-2.433587551116944,-2.7494513988494877,9.396949768066406,0
3301007,2024-02-06 10:43:22.068143,-2.4479448795318604,-2.6441633701324463,9.770243644714355,0
3301083,2024-02-06 10:43:22.143339,-3.0868513584136963,-2.3785505294799805,8.40389347076416,0
3301160,2024-02-06 10:43:22.218314,-3.42903733253479,-2.900204658508301,8.659934043884277,0
3301237,2024-02-06 10:43:22.308342,-2.5388755798339844,-3.4170727729797363,8.762829780578613,0
3301313,2024-02-06 10:43:22.383302,-1.2849916219711304,-2.823631525039673,9.066728591918944,0
3301390,2024-02-06 10:43:22.458319,-0.8925547003746033,-3.2352118492126465,9.128944396972656,0
3301466,2024-02-06 10:43:22.533264,-1.9334697723388672,-3.728150844573975,9.404129028320312,0
3301542,2024-02-06 10:43:22.607548,-1.4094228744506836,-2.6034839153289795,8.822651863098145,0
3301619,2024-02-06 10:43:22.682959,-1.416601538658142,-2.6896286010742188,9.387378692626951,0
3301696,2024-02-06 10:43:22.758303,-1.739644169807434,-3.000706672668457,9.121766090393066,0
3301772,2024-02-06 10:43:22.833179,-1.81382429599762,-3.309391975402832,9.004512786865234,0
3301849,2024-02-06 10:43:22.907553,-1.7348583936691284,-3.261533737182617,9.076300621032717,0
3301925,2024-02-06 10:43:22.983275,-2.043543577194214,-3.426644325256348,8.961441040039062,0
3302001,2024-02-06 10:43:23.058751,-2.036364793777466,-3.182567834854126,9.05237102508545,0
3302078,2024-02-06 10:43:23.148129,-1.7851094007492063,-3.0318145751953125,9.033227920532228,0
3302155,2024-02-06 10:43:23.223317,-1.8640754222869875,-3.232818841934204,9.155266761779783,0
3302231,2024-02-06 10:43:23.313347,-1.8329676389694212,-3.4960386753082275,9.12415885925293,0
3302308,2024-02-06 10:43:23.373312,-1.4979604482650757,-3.204103946685791,9.231839179992676,0
3302384,2024-02-06 10:43:23.448133,-1.7946810722351074,-3.5175747871398926,8.805901527404785,0
3302460,2024-02-06 10:43:23.523298,-1.809038519859314,-3.3117847442626958,8.95665454864502,0
3302537,2024-02-06 10:43:23.598145,-1.208418607711792,-3.661149263381958,8.901618003845215,0
3302614,2024-02-06 10:43:23.673290,-1.643927812576294,-3.8477962017059326,8.865724563598633,0
3302691,2024-02-06 10:43:23.747580,-2.014828681945801,-4.319199085235596,10.110036849975586,0
3302767,2024-02-06 10:43:23.837638,-3.6228628158569336,-2.955241441726685,9.203125,0
3302843,2024-02-06 10:43:23.912646,-3.4122869968414307,-1.387886643409729,8.013849258422852,0
3302920,2024-02-06 10:43:23.988313,-5.068179130554199,-0.6700142621994019,8.741292953491211,0
3302997,2024-02-06 10:43:24.063288,-4.4867024421691895,-0.1914326548576355,8.241175651550293,0
3303073,2024-02-06 10:43:24.138299,-5.305077075958252,0.6939433217048645,8.68147087097168,0
3303150,2024-02-06 10:43:24.213342,-5.132787704467773,1.4812101125717163,9.040407180786133,0
3303226,2024-02-06 10:43:24.288133,-5.204575061798096,2.663306713104248,8.712578773498535,0
3303302,2024-02-06 10:43:24.363125,-6.0947370529174805,-0.6054057478904724,7.408443450927734,0
3303379,2024-02-06 10:43:24.438301,-6.523067474365234,0.6652284264564514,9.562060356140137,0
3303456,2024-02-06 10:43:24.513376,-4.5632758140563965,-0.0909305065870285,7.922918796539307,0
3303532,2024-02-06 10:43:24.603313,-4.5010600090026855,0.7250511646270752,7.855917453765869,0
3303609,2024-02-06 10:43:24.678298,-5.156716823577881,1.8497179746627808,7.133258819580078,0
3303685,2024-02-06 10:43:24.753326,-3.955476999282837,2.7638089656829834,7.477837562561035,0
3303761,2024-02-06 10:43:24.828300,-5.187824726104736,3.02942156791687,8.032992362976074,0
3303838,2024-02-06 10:43:24.903214,-4.876746654510498,2.4503378868103027,8.303391456604004,0
3303915,2024-02-06 10:43:24.977546,-4.034442901611328,3.450573444366455,8.016242027282715,0
3303991,2024-02-06 10:43:25.052553,-3.5295393466949463,2.957634449005127,6.886789321899414,0
3304068,2024-02-06 10:43:25.127972,-3.6922571659088135,5.697514057159424,6.592461585998535,0
3304144,2024-02-06 10:43:25.203099,-5.259612083435059,5.276362419128418,7.9994916915893555,0
3304220,2024-02-06 10:43:25.278288,-3.618077039718628,5.412757873535156,6.434529781341553,0
3304297,2024-02-06 10:43:25.368309,-3.606112480163574,5.948769569396973,6.76235818862915,0
3304374,2024-02-06 10:43:25.443281,-1.986113667488098,6.262240409851074,6.142595291137695,0
3304450,2024-02-06 10:43:25.518331,-2.979170560836792,6.468030452728272,6.748000621795654,0
3304527,2024-02-06 10:43:25.593297,-1.742037057876587,6.771929740905762,6.384278774261475,0
3304603,2024-02-06 10:43:25.667742,-1.2802058458328247,6.946612358093262,6.01577091217041,0
3304679,2024-02-06 10:43:25.742761,-1.3998512029647827,7.408443450927734,5.597012042999268,0
