timestamp,timestamp_local,ax,ay,az,fall_state
2554091,2024-02-06 10:30:55.165012,-0.9978426694869996,9.65299129486084,-0.4857603311538696,0
2554167,2024-02-06 10:30:55.239608,-1.0098072290420532,9.667348861694336,-0.3804723918437958,0
2554244,2024-02-06 10:30:55.314809,-0.8159816861152649,9.571632385253906,-0.5025107264518738,0
2554321,2024-02-06 10:30:55.389846,-0.9451987147331238,9.571632385253906,-0.4594383537769317,0
2554397,2024-02-06 10:30:55.464786,-0.904519259929657,9.480701446533203,-0.3972227573394775,0
2554473,2024-02-06 10:30:55.539790,-0.923662543296814,9.475915908813477,-0.0693943351507186,0
2554550,2024-02-06 10:30:55.614640,-1.0839873552322388,9.36823558807373,0.0765730589628219,0
2554626,2024-02-06 10:30:55.704236,-0.8470894694328308,9.425664901733398,0.3230426013469696,0
2554703,2024-02-06 10:30:55.779047,-0.7154794931411743,8.693434715270996,-0.7968384027481079,0
2554780,2024-02-06 10:30:55.854011,-0.0741801485419273,9.497451782226562,-2.457516670227051,0
2554856,2024-02-06 10:30:55.929791,0.7681235074996948,10.60776138305664,-6.688178062438965,0
2554932,2024-02-06 10:30:56.004672,1.742037057876587,10.74655055999756,-6.499138355255127,0
2555009,2024-02-06 10:30:56.079077,2.0985803604125977,9.753493309020996,-7.408443450927734,0
2555085,2024-02-06 10:30:56.154560,0.7537660598754883,10.28471851348877,-6.616390705108643,0
2555162,2024-02-06 10:30:56.229615,0.825553297996521,9.31319808959961,-6.063629150390625,0
2555239,2024-02-06 10:30:56.305780,0.1722893863916397,8.33210563659668,-5.599404811859131,0
2555315,2024-02-06 10:30:56.379594,-0.308685153722763,8.281854629516602,-5.228504180908203,0
2555391,2024-02-06 10:30:56.514548,-0.0909305065870285,8.111958503723145,-4.314413070678711,0
2555468,2024-02-06 10:30:56.544078,-0.964341938495636,7.808059215545654,-3.8621537685394287,0
2555544,2024-02-06 10:30:56.619788,-1.277812957763672,7.073436260223389,-2.718343496322632,0
2555621,2024-02-06 10:30:56.694795,-1.7970739603042605,7.492195129394531,-1.1462029218673706,0
2555698,2024-02-06 10:30:56.769666,-1.4022440910339355,8.336892127990723,-1.1964540481567385,0
2555774,2024-02-06 10:30:56.844748,-2.0985803604125977,8.583361625671387,-0.3326142132282257,0
2555850,2024-02-06 10:30:56.919768,-1.4812101125717163,9.585989952087402,-1.454888105392456,0
2555927,2024-02-06 10:30:56.994612,1.7563945055007937,10.11960792541504,-0.5072965025901794,0
2556003,2024-02-06 10:30:57.068974,2.802095413208008,11.665427207946776,-1.318492412567139,0
2556080,2024-02-06 10:30:57.143967,1.560176134109497,11.361527442932127,-1.3639576435089111,0
2556157,2024-02-06 10:30:57.234780,1.306527853012085,9.12415885925293,-0.7106937170028687,0
2556233,2024-02-06 10:30:57.309301,1.2108114957809448,8.164602279663086,-0.7035149931907654,0
2556309,2024-02-06 10:30:57.384219,1.1749178171157837,9.37541389465332,0.033500712364912,0
2556386,2024-02-06 10:30:57.459813,1.2347406148910522,9.088264465332031,0.016750356182456,0
2556462,2024-02-06 10:30:57.534269,1.5075321197509766,8.844188690185547,0.1172524988651275,0
2556539,2024-02-06 10:30:57.609037,1.4788172245025637,9.693670272827148,0.6389064788818359,0
2556616,2024-02-06 10:30:57.684423,1.9908995628356931,9.442415237426758,0.6939433217048645,0
2556692,2024-02-06 10:30:57.759789,1.868861198425293,9.38259220123291,0.9595561623573304,0
2556768,2024-02-06 10:30:57.834057,1.2443121671676636,9.303627014160156,1.0696299076080322,0
2556845,2024-02-06 10:30:57.909041,0.7178724408149719,9.23662567138672,1.5362470149993896,0
2556921,2024-02-06 10:30:58.044025,0.9164838194847108,9.674527168273926,2.036364793777466,0
2556998,2024-02-06 10:30:58.074141,0.4450809061527252,9.65299129486084,2.158403158187866,0
2557075,2024-02-06 10:30:58.149308,-0.1555390208959579,13.57496738433838,0.5431901216506958,0
2557151,2024-02-06 10:30:58.224026,-0.3469716608524322,7.903775215148926,-0.6149773597717285,0
2557227,2024-02-06 10:30:58.299786,-0.5766908526420593,9.961676597595217,-0.0550368875265121,0
2557304,2024-02-06 10:30:58.374053,-0.6125844717025757,9.518988609313965,0.6532639265060425,0
2557380,2024-02-06 10:30:58.449757,-0.6987291574478149,8.997334480285645,0.7106937170028687,0
2557457,2024-02-06 10:30:58.524051,-0.9212695956230164,9.12415885925293,1.3735291957855225,0
2557534,2024-02-06 10:30:58.599067,-0.5742979645729065,9.303627014160156,1.86646831035614,0
2557610,2024-02-06 10:30:58.674379,-0.5025107264518738,9.502238273620604,1.9693633317947388,0
2557686,2024-02-06 10:30:58.764393,-0.7824809551239014,9.79417324066162,3.0102784633636475,0
2557763,2024-02-06 10:30:58.838987,-0.06460852175951,13.041349411010742,2.8619179725646973,0
2557839,2024-02-06 10:30:58.915307,1.0002355575561523,8.822651863098145,0.7800880670547485,0
2557916,2024-02-06 10:30:58.989610,1.7372512817382812,8.190924644470215,0.3661149442195892,0
2557993,2024-02-06 10:30:59.064772,1.541032791137695,9.672134399414062,0.3732936680316925,0
2558069,2024-02-06 10:30:59.139043,1.0672370195388794,9.820494651794434,1.9621846675872805,0
2558146,2024-02-06 10:30:59.214599,0.648478090763092,8.683863639831543,1.3759222030639648,0
2558222,2024-02-06 10:30:59.289769,0.6317277550697327,9.562060356140137,1.9885066747665403,0
2558298,2024-02-06 10:30:59.364689,0.2895418703556061,9.36823558807373,2.086615800857544,0
2558375,2024-02-06 10:30:59.439759,0.1435744911432266,9.413700103759766,2.079437017440796,0
2558452,2024-02-06 10:30:59.529787,-1.0337363481521606,11.47638702392578,3.1442811489105225,0
2558528,2024-02-06 10:30:59.604136,-0.8303391337394714,10.959519386291504,1.019378900527954,0
2558604,2024-02-06 10:30:59.679732,-1.1820966005325315,7.267261981964111,-0.4690099954605102,0
2558681,2024-02-06 10:30:59.754064,-0.4714028835296631,10.375649452209473,0.4714028835296631,0
2558757,2024-02-06 10:30:59.829741,-0.7130866050720215,9.239018440246582,1.42378032207489,0
2558834,2024-02-06 10:30:59.904741,-1.0624512434005735,8.659934043884277,1.8186101913452148,0
2558911,2024-02-06 10:30:59.979776,-0.904519259929657,9.315590858459473,2.0052568912506104,0
2558987,2024-02-06 10:31:00.054078,-0.667621374130249,8.975798606872559,2.017221450805664,0
2559063,2024-02-06 10:31:00.144644,-0.5360113978385925,9.174409866333008,2.6298060417175293,0
2559140,2024-02-06 10:31:00.204793,-0.7537660598754883,10.416329383850098,3.5797905921936035,0
2559216,2024-02-06 10:31:00.294718,-0.3661149442195892,10.179430961608888,1.5984625816345217,0
2559292,2024-02-06 10:31:00.369022,0.521653950214386,8.21963882446289,1.868861198425293,0
2559369,2024-02-06 10:31:00.444733,2.0124356746673584,8.435001373291016,-0.4785816073417663,0
2559446,2024-02-06 10:31:00.519186,1.4070299863815308,11.239489555358888,1.2227760553359983,0
2559522,2024-02-06 10:31:00.594735,1.359171748161316,9.51180934906006,1.4788172245025637,0
2559599,2024-02-06 10:31:00.669168,1.0528795719146729,8.865724563598633,1.0672370195388794,0
2559675,2024-02-06 10:31:00.744016,0.7705163955688477,9.507023811340332,1.100737690925598,0
2559752,2024-02-06 10:31:00.819018,0.4020085632801056,9.935354232788086,1.5266753435134888,0
2559829,2024-02-06 10:31:00.894010,-0.6628355383872986,13.086813926696776,1.05048668384552,0
2559905,2024-02-06 10:31:00.969730,-0.1986113786697387,7.602269172668457,1.2108114957809448,0
2559982,2024-02-06 10:31:01.059738,0.5862624645233154,9.152873039245604,0.7130866050720215,0
2560058,2024-02-06 10:31:01.134676,-0.0406794361770153,10.557510375976562,1.0145930051803589,0
2560134,2024-02-06 10:31:01.209770,0.3421858549118042,9.456772804260254,1.4572809934616089,0
2560211,2024-02-06 10:31:01.284049,-0.102895051240921,9.655384063720703,1.7228938341140747,0
2560288,2024-02-06 10:31:01.359745,-0.0311078056693077,9.39934253692627,1.8329676389694212,0
2560364,2024-02-06 10:31:01.434786,-0.4546525478363037,8.753257751464844,1.5123178958892822,0
2560441,2024-02-06 10:31:01.524707,-0.5503688454627991,9.475915908813477,1.619998812675476,0
2560517,2024-02-06 10:31:01.584418,-0.461831271648407,9.538131713867188,1.8042527437210083,0
2560593,2024-02-06 10:31:01.659739,-0.0526439771056175,9.590775489807127,1.983720779418945,0
2560670,2024-02-06 10:31:01.734766,1.021771788597107,10.457008361816406,1.5003533363342283,0
2560747,2024-02-06 10:31:01.824766,1.3687434196472168,8.22921085357666,0.0143574485555291,0
2560823,2024-02-06 10:31:01.898999,0.9930568337440492,9.901853561401367,0.9906639456748962,0
2560900,2024-02-06 10:31:01.974803,1.739644169807434,9.394556999206545,0.8638398051261902,0
2560976,2024-02-06 10:31:02.049722,1.3160994052886963,8.77479362487793,0.2775773406028747,0
2561052,2024-02-06 10:31:02.124551,0.600619912147522,8.590539932250977,0.2536482512950897,0
2561129,2024-02-06 10:31:02.199572,0.2321120798587799,9.25576877593994,1.6415349245071411,0
2561206,2024-02-06 10:31:02.274745,0.1387886703014373,9.473523139953612,0.4067943692207336,0
2561282,2024-02-06 10:31:02.349575,-1.97893500328064,9.373021125793455,-0.2488624453544616,0
2561359,2024-02-06 10:31:02.424712,-2.979170560836792,6.149773597717285,-0.6341206431388855,0
2561435,2024-02-06 10:31:02.499709,-1.3639576435089111,7.6692705154418945,-0.1387886703014373,0
2561511,2024-02-06 10:31:02.589730,-2.438373327255249,8.676684379577637,1.1342384815216064,0
2561588,2024-02-06 10:31:02.664548,-2.706378936767578,8.726935386657715,1.749215841293335,0
2561665,2024-02-06 10:31:02.739541,-3.139495372772217,8.908797264099121,2.3163349628448486,0
2561741,2024-02-06 10:31:02.814351,-3.2830698490142822,9.530953407287598,3.161031484603882,1
2561818,2024-02-06 10:31:02.889729,-2.7494513988494877,8.33210563659668,2.0674726963043213,1
2561894,2024-02-06 10:31:02.964721,-3.598933696746826,9.294054985046388,1.8999689817428589,1
2561970,2024-02-06 10:31:03.039686,-2.713557720184326,9.727170944213867,2.9121692180633545,1
2562047,2024-02-06 10:31:03.114724,-8.095208168029785,9.428057670593262,4.508238792419434,1
2562124,2024-02-06 10:31:03.189717,-8.578575134277344,11.402207374572754,-5.333792209625244,1
2562200,2024-02-06 10:31:03.264710,-11.629533767700195,11.217952728271484,0.806410014629364,1
2562277,2024-02-06 10:31:03.399732,-8.353642463684082,10.619726181030272,0.0382865294814109,1
2562353,2024-02-06 10:31:03.429160,-8.540288925170898,1.4979604482650757,-0.4570454359054565,1
2562429,2024-02-06 10:31:03.504712,-5.142359256744385,8.856152534484863,-0.2919347882270813,1
2562506,2024-02-06 10:31:03.579716,-5.290719985961914,7.195474624633789,1.1509888172149658,1
2562583,2024-02-06 10:31:03.654700,-17.341405868530273,10.777658462524414,4.067943572998047,1
2562659,2024-02-06 10:31:03.729681,-5.857839107513428,5.357721328735352,4.180410385131836,1
2562736,2024-02-06 10:31:03.804675,-10.741764068603516,6.642713069915772,4.534560680389404,1
2562812,2024-02-06 10:31:03.879709,-8.896832466125488,3.426644325256348,4.46995210647583,1
2562888,2024-02-06 10:31:03.954716,-7.420407772064209,1.366350531578064,4.848031997680664,1
2562965,2024-02-06 10:31:04.044625,-7.071043491363525,2.8427748680114746,5.742979526519775,1
2563041,2024-02-06 10:31:04.104399,-7.56158971786499,2.8212387561798096,6.403421878814697,1
2563118,2024-02-06 10:31:04.194719,-6.116272926330566,3.5391111373901367,6.130630493164063,1
2563195,2024-02-06 10:31:04.269757,-6.657070159912109,4.295269966125488,6.33642053604126,1
2563271,2024-02-06 10:31:04.344439,-5.869803428649902,4.328770637512207,6.781501770019531,1
2563347,2024-02-06 10:31:04.419357,-5.40797233581543,3.6204700469970703,6.7838945388793945,1
2563424,2024-02-06 10:31:04.494594,-5.644870281219482,4.20194673538208,6.338813304901123,1
2563500,2024-02-06 10:31:04.569564,-6.243097305297852,4.52259635925293,6.063629150390625,1
2563577,2024-02-06 10:31:04.644707,-6.010984897613525,4.376628875732422,6.039700031280518,1
2563654,2024-02-06 10:31:04.718995,-5.795623302459717,4.481916904449463,6.470423698425293,1
2563730,2024-02-06 10:31:04.809439,-6.269419193267822,4.960498332977295,6.503924369812012,1
2563806,2024-02-06 10:31:04.869682,-7.0160064697265625,4.709243297576904,5.812373638153076,1
2563883,2024-02-06 10:31:04.959746,-6.312491416931152,4.984427452087402,5.2811479568481445,1
2563959,2024-02-06 10:31:05.034752,-6.396243095397949,5.45104455947876,4.754708290100098,1
2564036,2024-02-06 10:31:05.109701,-5.417543888092041,6.434529781341553,4.412522315979004,1
2564113,2024-02-06 10:31:05.184755,-5.508474349975586,6.345992088317871,4.209125518798828,1
2564189,2024-02-06 10:31:05.259737,-5.360114097595215,6.688178062438965,3.725757837295532,1
2564265,2024-02-06 10:31:05.334746,-5.757337093353272,7.099758148193359,3.175389051437378,1
2564342,2024-02-06 10:31:05.409734,-6.750393867492676,6.886789321899414,3.2017109394073486,1
2564418,2024-02-06 10:31:05.484752,-6.898754119873047,7.233761310577393,2.696807384490967,1
2564495,2024-02-06 10:31:05.574708,-7.370156764984131,6.135416507720947,2.340264081954956,1
2564572,2024-02-06 10:31:05.679731,-6.915504455566406,5.965519905090332,1.6846072673797607,1
2564648,2024-02-06 10:31:05.768999,-7.425193786621094,6.221560955047607,2.294798851013184,1
2564725,2024-02-06 10:31:05.798883,-8.099993705749512,6.5374250411987305,1.426173210144043,1
2564801,2024-02-06 10:31:05.874689,-7.207438945770264,7.224189758300781,0.8662327527999878,1
2564877,2024-02-06 10:31:05.949746,-6.654677391052246,8.999727249145508,0.679585874080658,1
2564954,2024-02-06 10:31:06.024669,-6.64031982421875,7.094972610473633,0.5910483002662659,1
2565031,2024-02-06 10:31:06.099666,-5.537189483642578,7.097365379333496,0.4594383537769317,0
2565107,2024-02-06 10:31:06.174696,-5.106465816497803,8.004277229309082,0.7298369407653809,0
2565184,2024-02-06 10:31:06.249721,-3.943512439727783,8.51396656036377,0.5336185097694397,0
2565260,2024-02-06 10:31:06.339707,-2.507767677307129,9.490273475646973,0.7776951193809509,0
2565336,2024-02-06 10:31:06.399681,-2.060293912887573,8.729329109191895,0.6293348073959351,0
2565413,2024-02-06 10:31:06.489683,-0.765730619430542,9.21987533569336,1.0576653480529783,0
2565490,2024-02-06 10:31:06.564668,-0.3804723918437958,9.47113037109375,0.3421858549118042,0
2565566,2024-02-06 10:31:06.639684,-0.7681235074996948,9.014084815979004,1.1079164743423462,0
2565643,2024-02-06 10:31:06.714689,-0.9475916028022766,9.064335823059082,0.5288326740264893,0
2565719,2024-02-06 10:31:06.789687,-0.2823631465435028,10.203360557556152,0.5647262930870056,0
2565795,2024-02-06 10:31:06.864476,-1.0313433408737185,10.681941986083984,-1.5506044626235962,0
2565872,2024-02-06 10:31:06.939664,-0.3374000489711761,8.805901527404785,-4.235447406768799,0
2565949,2024-02-06 10:31:07.014513,-1.6032484769821167,10.28471851348877,-3.926762104034424,0
2566025,2024-02-06 10:31:07.104674,-3.232818841934204,9.877924919128418,-4.52259635925293,0
2566102,2024-02-06 10:31:07.164714,-2.8690967559814453,10.313433647155762,-4.199553489685059,0
2566178,2024-02-06 10:31:07.253846,-2.9528486728668213,9.116979598999023,-4.000942230224609,0
2566254,2024-02-06 10:31:07.329756,-3.701828718185425,8.595325469970703,-5.453437328338623,0
2566331,2024-02-06 10:31:07.403871,-3.421858549118042,6.64031982421875,-5.300291538238525,0
2566408,2024-02-06 10:31:07.494182,-4.182803153991699,7.877453327178955,-6.190453052520752,0
2566484,2024-02-06 10:31:07.554677,-2.9983139038085938,8.080850601196289,-4.663777828216553,0
2566561,2024-02-06 10:31:07.628897,-3.910011768341065,7.975562572479248,-2.9911351203918457,0
2566637,2024-02-06 10:31:07.704427,-3.2352118492126465,8.461322784423828,-2.395301103591919,0
2566713,2024-02-06 10:31:07.778992,-2.8858470916748047,8.006670951843262,-1.25866961479187,0
2566790,2024-02-06 10:31:07.869176,-1.5338541269302368,7.26486873626709,0.1387886703014373,0
2566867,2024-02-06 10:31:07.929667,-1.6008554697036743,8.162209510803223,0.105287954211235,0
2566943,2024-02-06 10:31:08.019310,-1.8545037508010864,8.044957160949707,0.0550368875265121,0
2567020,2024-02-06 10:31:08.094693,-3.582183361053467,12.37851333618164,1.246705174446106,0
2567096,2024-02-06 10:31:08.169647,-0.6054057478904724,13.589324951171877,-0.7322298884391785,0
2567172,2024-02-06 10:31:08.244523,1.5864980220794678,10.923624992370604,0.184253916144371,0
2567249,2024-02-06 10:31:08.318945,-1.2108114957809448,11.165308952331545,-0.3924369215965271,0
2567326,2024-02-06 10:31:08.394673,1.0863802433013916,11.663034439086914,0.7633376717567444,0
2567402,2024-02-06 10:31:08.469650,0.9595561623573304,11.06002140045166,0.4498667120933532,0
2567479,2024-02-06 10:31:08.544670,0.9739136099815368,9.94731903076172,-0.0119645409286022,0
2567555,2024-02-06 10:31:08.633894,1.552997350692749,9.38498592376709,0.2201475501060485,0
2567631,2024-02-06 10:31:08.709664,2.093794584274292,7.456301689147949,-0.8805902004241943,0
2567708,2024-02-06 10:31:08.784701,2.122509479522705,6.470423698425293,-1.1677391529083252,0
2567785,2024-02-06 10:31:08.859605,2.036364793777466,6.343599319458008,-1.081594467163086,0
2567861,2024-02-06 10:31:08.934706,1.3256710767745972,7.339049339294434,-0.9284483194351196,0
2567938,2024-02-06 10:31:09.009513,1.2562767267227173,9.002120018005371,0.3062922358512878,0
2568014,2024-02-06 10:31:09.084694,0.9021263718605042,9.985605239868164,0.6771929860115051,0
2568090,2024-02-06 10:31:09.159646,1.3256710767745972,9.758278846740724,1.2251689434051514,0
2568167,2024-02-06 10:31:09.234713,2.2086541652679443,9.499845504760742,0.5049036145210266,0
2568244,2024-02-06 10:31:09.309656,-0.3517574965953827,10.947554588317873,0.4020085632801056,0
2568320,2024-02-06 10:31:09.399645,-0.3948298394680023,8.379963874816895,-1.275420069694519,0
2568397,2024-02-06 10:31:09.459673,-0.3326142132282257,9.136122703552246,-0.2345049977302551,0
2568473,2024-02-06 10:31:09.564635,-1.0457007884979248,9.353878021240234,0.5742979645729065,0
2568550,2024-02-06 10:31:09.624666,-1.0576653480529783,9.509416580200195,1.404637098312378,0
2568626,2024-02-06 10:31:09.714642,-1.0480937957763672,8.76761531829834,1.4812101125717163,0
2568703,2024-02-06 10:31:09.774684,-0.825553297996521,9.128944396972656,2.167974710464477,0
2568780,2024-02-06 10:31:09.849676,-0.952377438545227,9.054763793945312,2.333085298538208,0
2568856,2024-02-06 10:31:09.924656,-0.8542681932449341,9.38259220123291,2.6656997203826904,0
2568932,2024-02-06 10:31:09.999742,-0.6604426503181458,9.717599868774414,3.268712520599365,0
2569009,2024-02-06 10:31:10.074664,0.0215361732989549,10.973876953125,2.8355960845947266,0
2569085,2024-02-06 10:31:10.164703,1.268241286277771,9.088264465332031,0.983485221862793,0
2569162,2024-02-06 10:31:10.224657,1.4740313291549685,7.303155422210693,0.1531461179256439,0
2569239,2024-02-06 10:31:10.314636,1.170132040977478,10.461793899536133,0.8566610813140869,0
2569315,2024-02-06 10:31:10.389620,0.806410014629364,9.083478927612305,1.7037506103515625,0
2569391,2024-02-06 10:31:10.464526,0.983485221862793,9.315590858459473,1.8281817436218264,0
2569468,2024-02-06 10:31:10.539681,0.5862624645233154,9.451987266540527,1.897576093673706,0
2569544,2024-02-06 10:31:10.614000,0.2273262739181518,9.049978256225586,1.8640754222869875,0
2569621,2024-02-06 10:31:10.689667,0.016750356182456,9.40891456604004,2.2804415225982666,0
2569698,2024-02-06 10:31:10.763917,0.2512553632259369,10.212931632995604,2.811666965484619,0
2569774,2024-02-06 10:31:10.838917,0.0095716323703527,10.940375328063965,2.9528486728668213,0
2569850,2024-02-06 10:31:10.914651,0.0454652532935142,9.40173625946045,0.8542681932449341,0
2569927,2024-02-06 10:31:10.989100,-1.2658483982086182,7.762593746185303,0.5049036145210266,0
2570003,2024-02-06 10:31:11.079651,-1.591283917427063,9.55009651184082,-0.7489802241325378,0
2570080,2024-02-06 10:31:11.154624,-1.318492412567139,10.557510375976562,1.2562767267227173,0
2570157,2024-02-06 10:31:11.229644,-1.454888105392456,9.394556999206545,1.0887731313705444,0
2570233,2024-02-06 10:31:11.304656,-1.84014630317688,9.39216423034668,1.0241646766662598,0
2570309,2024-02-06 10:31:11.379633,-1.4883887767791748,9.346698760986328,0.7824809551239014,0
2570386,2024-02-06 10:31:11.453894,-1.5960696935653689,9.38498592376709,1.6534994840621948,0
2570462,2024-02-06 10:31:11.529495,-0.7848738431930542,10.72022819519043,1.6367491483688354,0
2570539,2024-02-06 10:31:11.604654,0.0287148971110582,8.537896156311035,0.6436922550201416,0
2570616,2024-02-06 10:31:11.694723,0.5144752264022827,8.13349437713623,1.2323477268218994,0
2570692,2024-02-06 10:31:11.769749,0.3134709596633911,11.339991569519045,1.84014630317688,0
2570768,2024-02-06 10:31:11.844304,0.5503688454627991,8.614469528198242,1.1055235862731934,0
2570845,2024-02-06 10:31:11.920076,1.2562767267227173,7.427586555480957,0.1675035655498504,0
2570921,2024-02-06 10:31:11.995089,2.232583284378052,8.171781539916992,0.1866468340158462,0
2570998,2024-02-06 10:31:12.070083,1.4596738815307615,11.34477710723877,2.0770442485809326,0
2571075,2024-02-06 10:31:12.144391,-0.382865309715271,8.339284896850586,0.9380199909210204,0
2571151,2024-02-06 10:31:12.219606,-0.5575475692749023,8.013849258422852,1.742037057876587,0
2571227,2024-02-06 10:31:12.294486,0.0598227009177207,7.731485843658447,0.9906639456748962,1
2571304,2024-02-06 10:31:12.369622,1.366350531578064,9.337127685546877,0.0885375961661338,1
2571380,2024-02-06 10:31:12.459594,1.6870001554489136,11.00498390197754,1.8856115341186523,1
2571457,2024-02-06 10:31:12.534662,1.8999689817428589,7.834381103515625,0.8016242384910583,1
2571534,2024-02-06 10:31:12.609614,1.1174880266189575,8.93990421295166,2.58673357963562,1
2571610,2024-02-06 10:31:12.684658,2.51733922958374,8.42782211303711,2.256512403488159,1
2571686,2024-02-06 10:31:12.759607,2.0746512413024902,9.66256332397461,2.1249024868011475,1
2571763,2024-02-06 10:31:12.834363,4.142123699188232,10.509652137756348,2.0961875915527344,1
2571839,2024-02-06 10:31:12.910069,3.9459054470062256,9.870745658874512,2.366586208343506,1
2571916,2024-02-06 10:31:12.984513,4.654206275939941,9.633848190307615,1.3304568529129028,1
2571993,2024-02-06 10:31:13.059411,3.2567479610443115,5.874589443206787,0.8231604099273682,1
2572069,2024-02-06 10:31:13.134657,2.488624334335327,4.615919589996338,-1.7683590650558472,1
2572145,2024-02-06 10:31:13.224596,15.67833423614502,12.053077697753906,1.916719436645508,1
2572222,2024-02-06 10:31:13.299605,0.3374000489711761,7.317512989044189,2.467088222503662,1
2572298,2024-02-06 10:31:13.374606,1.7755378484725952,8.695828437805176,2.366586208343506,1
2572375,2024-02-06 10:31:13.449280,5.520439147949219,16.80539321899414,2.6752712726593018,1
2572452,2024-02-06 10:31:13.524274,0.1507532149553299,5.551546573638916,5.843481540679932,1
2572528,2024-02-06 10:31:13.599602,2.756630182266236,8.370392799377441,4.06315803527832,1
2572604,2024-02-06 10:31:13.674628,4.343128204345703,5.845874309539795,6.149773597717285,1
2572681,2024-02-06 10:31:13.749543,4.663777828216553,5.8913397789001465,15.257182121276855,1
2572757,2024-02-06 10:31:13.824429,2.261298179626465,3.563040256500244,6.453673362731934,1
2572833,2024-02-06 10:31:13.899593,4.919818878173828,3.266319513320923,7.1356520652771,1
2572910,2024-02-06 10:31:13.974684,3.752079963684082,4.658992290496826,8.052135467529297,1
2572987,2024-02-06 10:31:14.064496,3.618077039718628,3.886082649230957,8.205282211303711,1
2573064,2024-02-06 10:31:14.139618,2.5197322368621826,4.182803153991699,8.935118675231934,1
2573140,2024-02-06 10:31:14.214478,2.129688262939453,4.405344009399414,9.033227920532228,1
2573216,2024-02-06 10:31:14.289601,1.6941789388656616,3.4553592205047607,8.731721878051758,1
2573293,2024-02-06 10:31:14.364600,2.0961875915527344,4.347914218902588,8.619255065917969,1
2573370,2024-02-06 10:31:14.439592,2.579555034637451,4.594383716583252,8.293819427490234,1
2573446,2024-02-06 10:31:14.514505,3.05574369430542,4.182803153991699,8.305784225463867,1
2573523,2024-02-06 10:31:14.589607,1.837753415107727,4.840853214263916,7.82241678237915,1
2573599,2024-02-06 10:31:14.664604,2.1823322772979736,5.111251831054688,8.052135467529297,1
2573675,2024-02-06 10:31:14.753869,2.931312322616577,4.7953877449035645,7.987527370452881,1
2573752,2024-02-06 10:31:14.829594,2.964813232421875,4.663777828216553,8.119136810302734,1
2573829,2024-02-06 10:31:14.904598,3.400322437286377,5.101680278778076,7.568768501281738,1
2573905,2024-02-06 10:31:14.979596,3.780794858932495,4.728386402130127,6.977719783782959,1
2573982,2024-02-06 10:31:15.054588,4.28809118270874,5.161502838134766,7.145223617553711,1
2574058,2024-02-06 10:31:15.144596,4.819316864013672,5.541975021362305,6.9609694480896,1
2574134,2024-02-06 10:31:15.204559,4.99160623550415,5.40797233581543,6.434529781341553,1
2574211,2024-02-06 10:31:15.279613,4.819316864013672,5.350542545318604,6.104308605194092,1
2574288,2024-02-06 10:31:15.354626,5.865017890930176,5.675978183746338,4.725993633270264,1
2574364,2024-02-06 10:31:15.429615,5.692728519439697,5.924840450286865,5.278755187988281,1
2574441,2024-02-06 10:31:15.519566,6.066021919250488,5.766908645629883,4.390986442565918,1
2574517,2024-02-06 10:31:15.594614,6.563746929168701,6.0253424644470215,3.677899837493897,1
2574593,2024-02-06 10:31:15.669571,6.786287307739258,7.133258819580078,3.0030996799468994,1
2574670,2024-02-06 10:31:15.743808,7.159581184387207,5.491724014282227,2.5269110202789307,1
2574747,2024-02-06 10:31:15.818881,7.827202320098877,6.338813304901123,0.0119645409286022,1
2574823,2024-02-06 10:31:15.894609,7.824809551239014,7.346227645874023,-0.1962184607982635,1
2574900,2024-02-06 10:31:15.969441,8.851366996765137,6.767144203186035,-1.6702498197555542,1
2574976,2024-02-06 10:31:16.044458,7.750629425048828,3.831045866012573,-2.7853450775146484,1
2575052,2024-02-06 10:31:16.119579,6.4464945793151855,1.7228938341140747,-3.450573444366455,1
2575129,2024-02-06 10:31:16.194580,6.0755934715271,0.6652284264564514,-3.991370677947998,1
2575206,2024-02-06 10:31:16.269611,9.911425590515137,-1.1557745933532717,-4.82649564743042,1
2575282,2024-02-06 10:31:16.359584,6.2502760887146,-3.3404996395111084,-7.080615043640137,1
2575359,2024-02-06 10:31:16.434598,6.408207893371582,-1.830574631690979,-6.834145545959473,1
2575435,2024-02-06 10:31:16.509573,5.300291538238525,-2.3641932010650635,-5.881768226623535,1
2575511,2024-02-06 10:31:16.584602,7.616626262664795,-2.754237174987793,-8.930333137512207,1
2575588,2024-02-06 10:31:16.658948,4.888711452484131,-2.572376251220703,-7.863095760345459,1
2575665,2024-02-06 10:31:16.734387,7.219403743743896,-3.350071430206299,-8.375178337097168,1
2575741,2024-02-06 10:31:16.809266,7.190688610076904,-2.6106626987457275,-10.189002990722656,1
2575818,2024-02-06 10:31:16.884597,4.065550804138184,-2.3235137462615967,-11.095914840698242,1
2575894,2024-02-06 10:31:16.959414,3.0054924488067627,-1.275420069694519,-10.100464820861816,1
2575970,2024-02-06 10:31:17.049574,3.7999379634857178,-0.5049036145210266,-10.01671314239502,1
2576047,2024-02-06 10:31:17.124138,1.8521108627319336,0.461831271648407,-9.995177268981934,0
2576124,2024-02-06 10:31:17.199515,2.782952070236206,1.4189945459365845,-9.959283828735352,0
2576200,2024-02-06 10:31:17.274625,1.7635732889175415,3.0509579181671143,-11.34477710723877,0
2576277,2024-02-06 10:31:17.348786,3.5319323539733887,4.455595016479492,-9.798958778381348,0
2576353,2024-02-06 10:31:17.424541,3.843010425567627,5.886553764343262,-9.004512786865234,0
2576429,2024-02-06 10:31:17.499552,4.8025665283203125,6.082772254943848,-8.044957160949707,0
2576506,2024-02-06 10:31:17.574600,4.536953926086426,5.271576404571533,-6.147380828857422,0
2576583,2024-02-06 10:31:17.649548,4.443630218505859,6.295741081237793,-4.737957954406738,0
2576659,2024-02-06 10:31:17.724557,2.7015931606292725,6.33642053604126,-3.3261423110961914,0
2576736,2024-02-06 10:31:17.814544,3.2064969539642334,7.721914291381836,-2.806881189346313,0
2576812,2024-02-06 10:31:17.889561,3.0677082538604736,6.824573993682861,-1.876039981842041,0
2576888,2024-02-06 10:31:17.964625,4.273733615875244,8.875295639038086,-4.264162063598633,0
2576965,2024-02-06 10:31:18.039378,3.857367753982544,9.164837837219238,-4.06315803527832,0
2577041,2024-02-06 10:31:18.114064,3.433823108673096,9.719992637634276,-4.510631561279297,0
2577118,2024-02-06 10:31:18.189545,3.2208542823791504,10.215324401855469,-4.982034683227539,0
2577195,2024-02-06 10:31:18.264578,-0.49054616689682,9.243803977966309,-5.149538040161133,0
2577271,2024-02-06 10:31:18.339425,1.021771788597107,11.313669204711914,-5.458223342895508,0
2577347,2024-02-06 10:31:18.414469,-0.0358936227858066,10.837480545043944,-5.742979526519775,0
2577424,2024-02-06 10:31:18.489554,-0.4929390549659729,9.894675254821776,-4.670956611633301,0
2577500,2024-02-06 10:31:18.579584,-0.8375178575515747,8.973404884338379,-4.34073543548584,0
2577577,2024-02-06 10:31:18.654552,-1.955005884170532,8.284247398376465,-4.087087154388428,0
2577654,2024-02-06 10:31:18.729526,-2.4264087677001958,7.147616386413574,-4.706850051879883,0
2577730,2024-02-06 10:31:18.804540,-2.3211207389831543,6.968148231506348,-4.38380765914917,0
2577807,2024-02-06 10:31:18.879547,-1.6367491483688354,6.491959571838379,-2.881061315536499,0
2577883,2024-02-06 10:31:18.954548,-2.261298179626465,7.2552971839904785,-2.03157901763916,0
2577959,2024-02-06 10:31:19.029571,-2.388122320175171,7.662091732025146,-2.579555034637451,0
2578036,2024-02-06 10:31:19.104538,-1.9406484365463257,9.99278450012207,-1.6343562602996826,0
2578113,2024-02-06 10:31:19.179523,-0.7681235074996948,10.576653480529783,-1.0289504528045654,0
2578189,2024-02-06 10:31:19.254532,-0.308685153722763,8.913582801818848,-0.806410014629364,0
2578266,2024-02-06 10:31:19.344567,0.1938255578279495,8.872902870178223,-1.0552724599838257,0
2578342,2024-02-06 10:31:19.419553,0.8973405361175537,9.672134399414062,-0.1698964685201645,0
2578418,2024-02-06 10:31:19.494555,0.8327320218086243,9.150480270385742,0.0047858161851763,0
2578495,2024-02-06 10:31:19.569556,0.7441943883895874,9.042799949645996,1.2227760553359983,0
2578572,2024-02-06 10:31:19.643807,0.8231604099273682,8.918368339538574,1.4883887767791748,0
2578648,2024-02-06 10:31:19.719231,0.4402951002120971,8.899225234985352,0.8088029623031616,0
2578725,2024-02-06 10:31:19.794430,0.0933234170079231,9.284482955932615,0.9451987147331238,0
2578801,2024-02-06 10:31:19.869529,0.0526439771056175,10.222503662109377,1.7085363864898682,0
2578877,2024-02-06 10:31:19.944550,-0.0765730589628219,12.03154182434082,1.2538838386535645,0
2578954,2024-02-06 10:31:20.018960,-0.6436922550201416,8.875295639038086,1.012200117111206,0
2579031,2024-02-06 10:31:20.109554,-0.6412993669509888,8.186138153076172,-0.5838695764541626,0
2579107,2024-02-06 10:31:20.184579,-1.799466848373413,10.20814609527588,-0.033500712364912,0
2579184,2024-02-06 10:31:20.259317,-2.2301902770996094,9.760672569274902,0.8901618123054504,0
2579260,2024-02-06 10:31:20.334594,-2.3282995223999023,8.82983112335205,-0.0095716323703527,0
2579336,2024-02-06 10:31:20.409544,-2.620234251022339,9.08108615875244,-0.1794681102037429,0
2579413,2024-02-06 10:31:20.484614,-2.871489763259888,8.892046928405762,0.0263219885528087,0
2579490,2024-02-06 10:31:20.559553,-2.9743847846984863,9.016477584838867,-1.0911661386489868,0
2579566,2024-02-06 10:31:20.634585,-2.0196144580841064,8.430214881896973,-1.90954065322876,0
2579643,2024-02-06 10:31:20.709567,-0.3709007501602173,10.28711223602295,-2.7087719440460205,0
2579719,2024-02-06 10:31:20.783836,0.3613291084766388,10.57186794281006,-1.5362470149993896,0
2579795,2024-02-06 10:31:20.874551,1.387886643409729,8.7843656539917,-1.3424214124679563,0
2579872,2024-02-06 10:31:20.949549,1.9526129961013796,8.547467231750488,-1.6558923721313477,0
2579949,2024-02-06 10:31:21.024316,1.955005884170532,8.502002716064453,-2.845167636871338,0
2580025,2024-02-06 10:31:21.099551,1.072022795677185,8.353642463684082,-3.716186285018921,0
2580102,2024-02-06 10:31:21.174541,0.9451987147331238,8.980584144592285,-3.3404996395111084,0
2580178,2024-02-06 10:31:21.249546,1.081594467163086,8.102386474609375,-3.1155662536621094,0
2580254,2024-02-06 10:31:21.324513,0.3038993179798126,7.791308879852295,-4.3670573234558105,0
2580331,2024-02-06 10:31:21.399362,0.1387886703014373,8.253140449523926,-4.34073543548584,0
2580408,2024-02-06 10:31:21.474564,0.2871489822864532,8.691041946411133,-4.38380765914917,0
2580484,2024-02-06 10:31:21.549520,0.284756064414978,10.349327087402344,-4.848031997680664,0
2580561,2024-02-06 10:31:21.624535,0.5192610621452332,10.897303581237791,-4.986820697784424,0
2580637,2024-02-06 10:31:21.714521,0.5431901216506958,10.327791213989258,-4.6613850593566895,0
2580713,2024-02-06 10:31:21.789522,0.6460852026939392,11.87360954284668,-4.50584602355957,0
2580790,2024-02-06 10:31:21.864551,-0.0119645409286022,12.261260986328123,-2.58673357963562,0
2580867,2024-02-06 10:31:21.939501,-0.5288326740264893,8.119136810302734,-1.2323477268218994,0
2580943,2024-02-06 10:31:22.013753,0.0454652532935142,9.47113037109375,-1.304134964942932,0
2581020,2024-02-06 10:31:22.089515,-0.9116979837417604,10.37325668334961,-0.1459673941135406,0
2581096,2024-02-06 10:31:22.164519,-0.8088029623031616,9.207910537719728,0.6987291574478149,0
2581172,2024-02-06 10:31:22.239507,-1.0026284456253052,9.203125,1.4142086505889893,0
2581249,2024-02-06 10:31:22.314532,-0.6149773597717285,9.353878021240234,1.928683876991272,0
2581326,2024-02-06 10:31:22.404538,-0.2416837215423584,9.475915908813477,1.584105134010315,0
2581402,2024-02-06 10:31:22.479524,-0.44268798828125,9.11458683013916,2.522125244140625,0
2581479,2024-02-06 10:31:22.554487,-0.6700142621994019,9.698456764221191,2.495803117752075,0
2581555,2024-02-06 10:31:22.628727,-0.6149773597717285,9.518988609313965,2.1320810317993164,0
2581631,2024-02-06 10:31:22.703832,-0.2416837215423584,9.509416580200195,2.3785505294799805,0
2581708,2024-02-06 10:31:22.779500,-0.3350071310997009,9.36584186553955,2.110544919967652,0
2581785,2024-02-06 10:31:22.854516,-0.2273262739181518,8.796330451965332,3.0030996799468994,0
2581861,2024-02-06 10:31:22.929358,0.3134709596633911,8.607290267944336,3.254354953765869,0
2581938,2024-02-06 10:31:23.004506,0.0885375961661338,8.456537246704102,3.3883578777313232,0
2582014,2024-02-06 10:31:23.078994,0.205790102481842,8.662327766418457,2.902597427368164,0
2582090,2024-02-06 10:31:23.169494,0.1651106625795364,11.002591133117676,0.2512553632259369,0
2582167,2024-02-06 10:31:23.244543,0.5001177787780762,12.41201400756836,-4.862389087677002,0
2582244,2024-02-06 10:31:23.319519,0.033500712364912,13.03895664215088,-4.017692565917969,0
2582320,2024-02-06 10:31:23.394338,0.5910483002662659,12.471837043762209,-3.6204700469970703,0
2582397,2024-02-06 10:31:23.469488,0.6412993669509888,11.07677173614502,-3.2064969539642334,0
2582473,2024-02-06 10:31:23.544438,-0.12921704351902,10.054999351501465,-2.359407424926758,0
2582550,2024-02-06 10:31:23.619500,-0.9356270432472228,8.875295639038086,-2.0890088081359863,0
2582626,2024-02-06 10:31:23.694495,-0.9380199909210204,8.140673637390137,-1.454888105392456,0
2582703,2024-02-06 10:31:23.769485,-1.1366313695907593,6.606819152832031,-1.4788172245025637,0
2582780,2024-02-06 10:31:23.844306,-1.268241286277771,6.477602005004883,-0.8758043646812439,0
2582856,2024-02-06 10:31:23.934485,-1.622391700744629,7.8463454246521,0.0717872455716133,0
2582932,2024-02-06 10:31:24.009506,-1.718108057975769,8.94947624206543,0.9356270432472228,0
2583009,2024-02-06 10:31:24.084808,-1.672642707824707,8.825044631958008,1.3519930839538574,0
2583085,2024-02-06 10:31:24.159336,-1.6606782674789429,8.748472213745117,1.9310768842697144,0
2583162,2024-02-06 10:31:24.234513,-1.6415349245071411,8.930333137512207,1.9885066747665403,0
2583239,2024-02-06 10:31:24.309467,-1.847325086593628,9.822887420654297,3.330928087234497,0
2583315,2024-02-06 10:31:24.399513,-1.49317467212677,12.591482162475586,2.4048726558685303,0
2583391,2024-02-06 10:31:24.459610,0.2177546322345733,9.600347518920898,1.0409150123596191,0
2583468,2024-02-06 10:31:24.533911,0.7394086122512817,8.736507415771484,0.1172524988651275,0
2583544,2024-02-06 10:31:24.609504,0.2703986167907715,9.875532150268556,0.9284483194351196,0
2583621,2024-02-06 10:31:24.699489,0.6891575455665588,9.370628356933594,1.7587873935699463,0
2583698,2024-02-06 10:31:24.774550,0.540797233581543,8.700613975524902,1.5745335817337036,0
2583774,2024-02-06 10:31:24.848757,0.4857603311538696,8.889653205871582,2.108151912689209,0
2583850,2024-02-06 10:31:24.924480,0.0885375961661338,8.911190032958984,2.558018684387207,0
2583927,2024-02-06 10:31:25.000006,0.1962184607982635,9.449594497680664,3.0509579181671143,0
2584003,2024-02-06 10:31:25.074893,-0.205790102481842,9.638633728027344,3.55825424194336,0
2584080,2024-02-06 10:31:25.164507,-0.2560411691665649,11.2658109664917,3.146674156188965,0
2584157,2024-02-06 10:31:25.224482,-0.765730619430542,9.729564666748049,0.5360113978385925,0
2584233,2024-02-06 10:31:25.298724,-0.6700142621994019,7.6692705154418945,-0.5551546812057495,0
2584309,2024-02-06 10:31:25.374483,-1.079201579093933,10.186610221862791,0.9715206623077391,0
2584386,2024-02-06 10:31:25.464464,-1.239526391029358,9.66016960144043,1.4022440910339355,0
2584462,2024-02-06 10:31:25.539457,-1.2921704053878784,9.174409866333008,2.163188934326172,0
2584539,2024-02-06 10:31:25.614406,-1.4477094411849976,9.523774147033691,2.03157901763916,0
2584616,2024-02-06 10:31:25.689311,-1.3256710767745972,9.260554313659668,1.70135760307312,0
2584692,2024-02-06 10:31:25.763779,-1.3256710767745972,9.320377349853516,1.8545037508010864,0
2584768,2024-02-06 10:31:25.838752,-1.5721405744552612,9.380199432373049,2.598698139190674,0
2584845,2024-02-06 10:31:25.914502,-1.1940611600875854,9.641026496887209,2.7374868392944336,0
2584921,2024-02-06 10:31:25.989513,-0.6724071502685547,8.384750366210938,2.2804415225982666,0
2584998,2024-02-06 10:31:26.079556,0.1244312226772308,8.700613975524902,0.4809745252132416,0
2585075,2024-02-06 10:31:26.139470,0.1340028494596481,8.68147087097168,0.3780794739723205,0
2585151,2024-02-06 10:31:26.229460,0.3732936680316925,9.066728591918944,0.569512128829956,0
2585227,2024-02-06 10:31:26.304450,0.7418015003204346,8.363213539123535,-0.2943277060985565,0
2585304,2024-02-06 10:31:26.379330,0.2703986167907715,7.269654750823975,-0.0885375961661338,0
2585380,2024-02-06 10:31:26.454718,-0.5551546812057495,7.530481815338135,-1.2347406148910522,0
2585457,2024-02-06 10:31:26.544511,0.7322298884391785,9.75588607788086,-1.5793193578720093,0
2585534,2024-02-06 10:31:26.604488,1.5027462244033811,10.744157791137695,-2.163188934326172,0
2585610,2024-02-06 10:31:26.678784,1.6391420364379885,10.581439971923828,-1.1916682720184326,0
2585686,2024-02-06 10:31:26.754533,1.387886643409729,10.200966835021973,-1.557783126831055,0
2585763,2024-02-06 10:31:26.829238,0.7418015003204346,10.751336097717283,-1.0098072290420532,0
2585839,2024-02-06 10:31:26.904369,-0.5575475692749023,8.356035232543945,1.5721405744552612,0
2585916,2024-02-06 10:31:26.994447,1.1294525861740112,3.850189208984375,0.205790102481842,0
2585993,2024-02-06 10:31:27.069073,0.0957163274288177,5.436686992645264,0.765730619430542,0
2586069,2024-02-06 10:31:27.144437,-0.0957163274288177,12.108115196228027,-21.34473991394043,1
2586145,2024-02-06 10:31:27.219390,7.11890172958374,4.812138080596924,-15.180608749389648,1
2586222,2024-02-06 10:31:27.294337,-10.27754020690918,3.4194657802581787,-15.85062313079834,1
2586298,2024-02-06 10:31:27.383819,4.211518287658691,-1.6678569316864014,-8.822651863098145,1
2586375,2024-02-06 10:31:27.443689,-1.5984625816345217,-0.5288326740264893,-8.39432144165039,1
2586452,2024-02-06 10:31:27.519460,0.3374000489711761,0.27997025847435,-9.274911880493164,1
2586528,2024-02-06 10:31:27.594479,-2.4431591033935547,0.0981092303991317,-9.650598526000977,1
2586604,2024-02-06 10:31:27.669463,-1.1629533767700195,2.5269110202789307,-12.227760314941406,1
2586681,2024-02-06 10:31:27.759329,-2.227797508239746,1.4285660982131958,-10.95473289489746,1
2586757,2024-02-06 10:31:27.834521,-1.3376356363296509,1.335242748260498,-9.875532150268556,1
2586833,2024-02-06 10:31:27.909276,-0.4953319728374481,3.1155662536621094,-10.686727523803713,1
2586910,2024-02-06 10:31:27.984492,0.5455830693244934,2.4694812297821045,-11.15334415435791,1
2586987,2024-02-06 10:31:28.059299,0.3996156454086303,4.03683614730835,-10.138751983642578,1
2587063,2024-02-06 10:31:28.134532,-0.0693943351507186,1.9119335412979128,-12.400050163269045,1
2587140,2024-02-06 10:31:28.209468,0.2249333560466766,-0.2297191768884658,-12.184687614440918,1
2587216,2024-02-06 10:31:28.284469,-0.0047858161851763,-0.1387886703014373,-10.430685997009276,1
2587292,2024-02-06 10:31:28.359455,0.1651106625795364,-0.1746822893619537,-10.19139575958252,1
2587369,2024-02-06 10:31:28.434486,0.2129688262939453,-0.2680056989192962,-9.99278450012207,1
2587446,2024-02-06 10:31:28.524458,0.0789659693837165,-0.308685153722763,-10.062178611755373,1
2587522,2024-02-06 10:31:28.599465,0.0071787242777645,-0.3302213251590729,-10.054999351501465,1
2587599,2024-02-06 10:31:28.674448,-0.1268241256475448,-0.387651115655899,-10.054999351501465,1
2587675,2024-02-06 10:31:28.749438,-0.2703986167907715,-0.4450809061527252,-10.10525131225586,1
2587751,2024-02-06 10:31:28.823933,-0.3302213251590729,-0.5312256217002869,-10.145930290222168,1
2587828,2024-02-06 10:31:28.899460,-0.3948298394680023,-0.5384043455123901,-10.076536178588867,1
2587905,2024-02-06 10:31:28.989436,-0.3996156454086303,-0.5288326740264893,-10.160287857055664,1
2587982,2024-02-06 10:31:29.049372,-0.3924369215965271,-0.5288326740264893,-10.100464820861816,1
2588058,2024-02-06 10:31:29.124446,-0.2584340870380401,-0.5264397859573364,-10.196181297302246,1
2588134,2024-02-06 10:31:29.199466,0.2967205941677093,1.0839873552322388,-17.331832885742188,1
2588211,2024-02-06 10:31:29.304440,0.2440766245126724,4.670956611633301,-10.07892894744873,1
2588288,2024-02-06 10:31:29.364294,1.0289504528045654,5.40797233581543,-10.890124320983888,1
2588364,2024-02-06 10:31:29.439412,0.4953319728374481,5.017928123474121,-9.657776832580566,1
2588441,2024-02-06 10:31:29.514452,1.0002355575561523,4.960498332977295,-9.128944396972656,1
2588517,2024-02-06 10:31:29.589438,0.5240468978881836,5.6807637214660645,-9.246196746826172,1
2588593,2024-02-06 10:31:29.664430,0.9164838194847108,5.6807637214660645,-8.33449935913086,1
2588670,2024-02-06 10:31:29.739443,0.2201475501060485,5.606583595275879,-8.3871431350708,1
2588747,2024-02-06 10:31:29.814306,0.7106937170028687,5.372078895568848,-8.14306640625,1
2588823,2024-02-06 10:31:29.889472,-0.5072965025901794,5.135180950164795,-7.793701648712158,1
2588900,2024-02-06 10:31:29.964462,0.0071787242777645,4.824102878570557,-7.090186595916748,1
2588976,2024-02-06 10:31:30.054415,0.6652284264564514,5.228504180908203,-7.374942779541016,1
2589052,2024-02-06 10:31:30.129418,0.2416837215423584,4.556097030639648,-8.425429344177246,1
2589129,2024-02-06 10:31:30.204429,0.3254354894161224,4.630277156829834,-8.021027565002441,1
2589206,2024-02-06 10:31:30.279470,0.6341206431388855,3.787973403930664,-8.619255065917969,1
2589282,2024-02-06 10:31:30.369604,0.3948298394680023,4.357485771179199,-8.351249694824219,1
2589359,2024-02-06 10:31:30.429105,-0.6556568145751953,4.1564812660217285,-10.19857406616211,1
2589435,2024-02-06 10:31:30.504245,-0.540797233581543,3.890868663787842,-7.946847915649414,1
2589511,2024-02-06 10:31:30.579113,-1.6415349245071411,4.359878540039063,-8.892046928405762,1
2589588,2024-02-06 10:31:30.654450,-1.6319633722305298,4.639848709106445,-9.38259220123291,1
2589665,2024-02-06 10:31:30.743613,-2.010042905807495,5.22611141204834,-8.435001373291016,0
2589741,2024-02-06 10:31:30.803731,-1.6534994840621948,4.635063171386719,-10.562295913696287,0
2589818,2024-02-06 10:31:30.894425,-3.6659352779388423,7.870274543762207,-7.078222274780273,0
2589894,2024-02-06 10:31:30.969438,-4.359878540039063,8.0377779006958,-6.958576679229736,0
2589970,2024-02-06 10:31:31.043792,-4.541739463806152,8.559432029724121,-5.525224685668945,0
2590047,2024-02-06 10:31:31.133829,-5.238075733184815,9.906639099121094,-4.953319549560547,0
2590124,2024-02-06 10:31:31.194254,-4.838459968566895,8.418251037597656,-4.455595016479492,0
2590200,2024-02-06 10:31:31.268724,-5.642477512359619,7.499373912811279,-2.79491662979126,0
2590277,2024-02-06 10:31:31.344391,-4.146909713745117,7.17872428894043,-3.127530813217163,0
2590353,2024-02-06 10:31:31.418721,-4.256983280181885,7.0830078125,-1.7563945055007937,0
2590429,2024-02-06 10:31:31.494373,-1.622391700744629,7.185903072357178,-1.0672370195388794,0
2590506,2024-02-06 10:31:31.568970,-0.8853759765625,7.334263324737549,-0.4379021823406219,0
2590583,2024-02-06 10:31:31.659079,-0.6628355383872986,7.779344081878662,0.0358936227858066,0
2590659,2024-02-06 10:31:31.734511,-0.4139730930328369,10.543152809143066,-0.0693943351507186,0
2590736,2024-02-06 10:31:31.809236,1.098344802856445,11.016948699951172,-0.2392908036708831,0
2590812,2024-02-06 10:31:31.884237,3.6850783824920654,11.713285446166992,-0.0813588723540306,0
2590888,2024-02-06 10:31:31.959174,2.9815635681152344,11.402207374572754,-0.3948298394680023,0
2590965,2024-02-06 10:31:32.034448,1.8616825342178345,12.007613182067873,-0.2153617292642593,0
2591041,2024-02-06 10:31:32.109336,1.904754877090454,11.141380310058594,-0.7298369407653809,0
2591118,2024-02-06 10:31:32.183960,2.3378713130950928,11.983683586120604,-3.239997625350952,0
2591195,2024-02-06 10:31:32.259423,1.4405306577682495,10.5551176071167,-3.926762104034424,0
2591271,2024-02-06 10:31:32.349399,0.8853759765625,7.898989677429199,-3.2304258346557617,0
2591347,2024-02-06 10:31:32.424471,0.904519259929657,7.587911605834961,-3.287855625152588,0
2591424,2024-02-06 10:31:32.499386,-0.0263219885528087,8.966226577758789,-1.897576093673706,0
2591500,2024-02-06 10:31:32.573706,-0.5575475692749023,7.140437602996826,-2.0842230319976807,0
2591577,2024-02-06 10:31:32.649345,-0.8470894694328308,6.590068817138672,-1.8257888555526731,0
2591654,2024-02-06 10:31:32.724432,-1.1079164743423462,9.75588607788086,-2.706378936767578,0
2591730,2024-02-06 10:31:32.799425,-2.4431591033935547,10.37325668334961,0.3900440335273742,0
2591806,2024-02-06 10:31:32.874412,-1.868861198425293,9.231839179992676,1.1222739219665527,0
2591883,2024-02-06 10:31:32.949398,-2.03157901763916,8.6096830368042,1.8712540864944456,0
2591959,2024-02-06 10:31:33.024433,-1.5362470149993896,8.726935386657715,1.8592896461486816,0
2592036,2024-02-06 10:31:33.114397,-2.194296836853028,8.56900405883789,2.383336544036865,0
2592113,2024-02-06 10:31:33.189364,-2.457516670227051,8.686256408691406,2.3976938724517822,0
2592189,2024-02-06 10:31:33.264418,-2.467088222503662,8.580968856811523,2.684842824935913,0
2592265,2024-02-06 10:31:33.354400,-2.3163349628448486,9.291662216186523,3.476895570755005,0
2592342,2024-02-06 10:31:33.413741,-1.6630711555480957,11.040878295898438,3.204103946685791,0
2592418,2024-02-06 10:31:33.489248,-1.2825987339019775,9.916211128234863,2.4551236629486084,0
2592495,2024-02-06 10:31:33.564384,0.1722893863916397,9.301233291625977,2.696807384490967,0
2592572,2024-02-06 10:31:33.639386,0.8877689242362976,8.815473556518555,0.8949476480484009,0
2592648,2024-02-06 10:31:33.714144,0.5384043455123901,9.798958778381348,1.983720779418945,0
2592724,2024-02-06 10:31:33.789377,0.3374000489711761,9.373021125793455,2.2589051723480225,0
2592801,2024-02-06 10:31:33.879386,0.4235447347164154,8.868117332458496,2.72552227973938,0
2592877,2024-02-06 10:31:33.953827,0.3493645787239074,8.75086498260498,2.871489763259888,0
2592954,2024-02-06 10:31:34.029389,-0.1387886703014373,8.628826141357422,2.806881189346313,0
2593031,2024-02-06 10:31:34.103833,-0.3780794739723205,9.265339851379396,2.053115129470825,0
2593107,2024-02-06 10:31:34.179388,-0.0550368875265121,9.13133716583252,3.926762104034424,0
2593183,2024-02-06 10:31:34.253819,-0.284756064414978,9.109801292419434,3.582183361053467,0
2593260,2024-02-06 10:31:34.329373,-0.0861446931958198,10.715442657470703,3.113173484802246,0
2593336,2024-02-06 10:31:34.403849,-0.952377438545227,9.71520709991455,1.5194966793060305,0
2593413,2024-02-06 10:31:34.479251,0.1555390208959579,8.339284896850586,0.4355092644691467,0
2593490,2024-02-06 10:31:34.553851,0.2775773406028747,9.9832124710083,1.8329676389694212,0
2593566,2024-02-06 10:31:34.644435,-0.3661149442195892,9.832459449768066,2.1249024868011475,0
2593642,2024-02-06 10:31:34.718902,-0.5312256217002869,9.186373710632324,1.6941789388656616,0
2593719,2024-02-06 10:31:34.794369,-0.5599405169487,8.887260437011719,2.5819478034973145,0
2593795,2024-02-06 10:31:34.869162,-0.6508709788322449,8.734114646911621,2.943276882171631,0
2593872,2024-02-06 10:31:34.943671,-0.9978426694869996,8.659934043884277,3.318963527679444,0
2593949,2024-02-06 10:31:35.019384,-1.0385221242904663,9.030835151672363,3.527146577835083,0
2594025,2024-02-06 10:31:35.094044,-0.9691277742385864,9.75588607788086,3.5319323539733887,0
2594101,2024-02-06 10:31:35.169392,-0.0622156113386154,8.683863639831543,1.3496001958847046,0
2594178,2024-02-06 10:31:35.244387,1.201239824295044,9.016477584838867,-0.5264397859573364,0
2594254,2024-02-06 10:31:35.319237,1.1988469362258911,8.42782211303711,-0.7776951193809509,0
2594331,2024-02-06 10:31:35.409371,1.2825987339019775,10.36368465423584,-0.7944455146789551,0
2594408,2024-02-06 10:31:35.484439,2.0411505699157715,9.509416580200195,-0.8207674622535706,0
2594484,2024-02-06 10:31:35.558581,1.7444299459457395,8.389535903930664,-2.158403158187866,0
2594560,2024-02-06 10:31:35.633609,1.1988469362258911,8.918368339538574,-3.007885456085205,0
2594637,2024-02-06 10:31:35.708633,1.84014630317688,9.341913223266602,-3.084458589553833,0
2594713,2024-02-06 10:31:35.783692,1.079201579093933,8.650362968444824,-3.998549461364746,0
2594790,2024-02-06 10:31:35.858606,1.7133221626281738,8.399106979370117,-5.195003509521484,0
2594867,2024-02-06 10:31:35.933646,1.110309362411499,9.39934253692627,-4.627884387969971,0
2594943,2024-02-06 10:31:36.008752,1.974149227142334,9.626668930053713,-5.259612083435059,0
2595019,2024-02-06 10:31:36.083625,2.304370403289795,8.66472053527832,-5.422329902648926,0
2595096,2024-02-06 10:31:36.174050,2.2804415225982666,7.736271858215332,-5.644870281219482,0
2595172,2024-02-06 10:31:36.249351,2.5699832439422607,7.035149574279785,-6.427350997924805,0
2595249,2024-02-06 10:31:36.339032,2.878668546676636,6.496745586395264,-6.846109867095947,0
2595326,2024-02-06 10:31:36.399363,3.218461275100708,6.0755934715271,-8.652755737304688,0
2595402,2024-02-06 10:31:36.473948,3.2064969539642334,5.93680477142334,-7.817630767822266,0
2595478,2024-02-06 10:31:36.564226,3.414679765701294,5.714264392852783,-8.001884460449219,0
2595555,2024-02-06 10:31:36.624017,3.828652858734131,5.4486517906188965,-8.07127857208252,0
2595631,2024-02-06 10:31:36.699334,3.9459054470062256,4.790602207183838,-8.621647834777832,0
2595708,2024-02-06 10:31:36.774028,4.005728244781494,4.797780513763428,-8.50678825378418,0
2595785,2024-02-06 10:31:36.849372,3.948298454284668,4.855210304260254,-8.39432144165039,0
2595861,2024-02-06 10:31:36.939371,4.000942230224609,4.642241477966309,-8.162209510803223,0
2595938,2024-02-06 10:31:37.014410,4.175624847412109,4.379021644592285,-8.32492733001709,0
2596014,2024-02-06 10:31:37.089361,3.929155111312866,4.158874034881592,-8.004277229309082,0
2596090,2024-02-06 10:31:37.164379,4.237840175628662,4.249804973602295,-8.34167766571045,0
2596167,2024-02-06 10:31:37.238553,4.256983280181885,4.072729587554932,-7.903775215148926,0
2596244,2024-02-06 10:31:37.313897,4.292877197265625,3.905225992202759,-8.329712867736816,0
2596320,2024-02-06 10:31:37.389371,4.192375183105469,3.924369335174561,-8.233996391296387,0
2596397,2024-02-06 10:31:37.464353,4.268948078155518,4.137338161468506,-8.145459175109863,0
2596473,2024-02-06 10:31:37.538668,4.4867024421691895,4.2545905113220215,-8.561824798583984,0
2596549,2024-02-06 10:31:37.614377,4.364664554595947,4.424487113952637,-8.624040603637695,0
2596626,2024-02-06 10:31:37.704368,4.2617692947387695,4.855210304260254,-8.312962532043457,0
2596703,2024-02-06 10:31:37.779365,4.273733615875244,5.290719985961914,-8.815473556518555,0
2596779,2024-02-06 10:31:37.869321,2.684842824935913,6.3699212074279785,-8.379963874816895,0
2596856,2024-02-06 10:31:37.929415,2.3857293128967285,6.326848983764648,-7.932490348815918,0
2596932,2024-02-06 10:31:38.004162,2.129688262939453,6.879610538482666,-6.353170871734619,0
2597008,2024-02-06 10:31:38.079843,1.543425679206848,8.348855972290039,-7.573554039001465,0
2597084,2024-02-06 10:31:38.154000,0.7633376717567444,8.920761108398438,-6.625962734222412,0
2597161,2024-02-06 10:31:38.229342,0.5479759573936462,8.920761108398438,-5.618548393249512,0
2597238,2024-02-06 10:31:38.304333,0.0071787242777645,8.31535530090332,-4.230661392211914,0
2597314,2024-02-06 10:31:38.379330,-0.016750356182456,7.82241678237915,-2.79491662979126,0
2597391,2024-02-06 10:31:38.454357,0.1531461179256439,8.473287582397461,-2.072258472442627,0
2597467,2024-02-06 10:31:38.544395,0.184253916144371,8.978191375732422,-0.8470894694328308,0
2597544,2024-02-06 10:31:38.619328,0.1794681102037429,9.274911880493164,0.1244312226772308,0
2597621,2024-02-06 10:31:38.694338,0.4307234585285187,9.406521797180176,0.4331163763999939,0
2597697,2024-02-06 10:31:38.769355,-0.1746822893619537,9.215088844299316,1.1438100337982178,0
2597774,2024-02-06 10:31:38.844167,-0.205790102481842,9.004512786865234,1.581712245941162,0
2597850,2024-02-06 10:31:38.919304,-0.8303391337394714,8.604897499084473,2.0746512413024902,0
2597926,2024-02-06 10:31:38.994333,-0.4450809061527252,9.08108615875244,2.8906328678131104,0
2598003,2024-02-06 10:31:39.069162,-0.7226582169532776,8.645576477050781,2.900204658508301,0
2598080,2024-02-06 10:31:39.144322,-0.95477032661438,8.353642463684082,3.35964298248291,0
2598156,2024-02-06 10:31:39.234386,-0.727444052696228,9.181588172912598,3.4194657802581787,0
2598233,2024-02-06 10:31:39.309303,-0.8662327527999878,8.904010772705078,3.2974274158477783,0
2598309,2024-02-06 10:31:39.384384,-0.6389064788818359,8.858545303344727,3.084458589553833,0
2598385,2024-02-06 10:31:39.459214,-0.95477032661438,8.935118675231934,3.725757837295532,0
2598462,2024-02-06 10:31:39.534382,-0.6604426503181458,8.57618236541748,3.759258508682251,0
2598539,2024-02-06 10:31:39.609314,-0.8638398051261902,9.20073127746582,4.008121013641357,0
2598615,2024-02-06 10:31:39.684396,-0.7968384027481079,9.317984580993652,4.398165225982666,0
2598692,2024-02-06 10:31:39.759413,-0.6365135312080383,9.86117458343506,4.230661392211914,0
2598768,2024-02-06 10:31:39.834344,-0.102895051240921,8.147851943969727,2.254119396209717,0
2598844,2024-02-06 10:31:39.909244,0.4450809061527252,9.172017097473145,2.91695499420166,0
2598921,2024-02-06 10:31:39.999341,0.7346227765083313,9.298840522766112,1.6702498197555542,0
2598998,2024-02-06 10:31:40.074311,0.3374000489711761,9.562060356140137,2.9672060012817383,0
2599074,2024-02-06 10:31:40.149172,0.466617077589035,8.82983112335205,2.8978116512298584,0
2599151,2024-02-06 10:31:40.224360,0.2177546322345733,9.157659530639648,2.598698139190674,0
2599227,2024-02-06 10:31:40.299186,-0.2105759084224701,9.571632385253906,2.069865465164185,0
2599303,2024-02-06 10:31:40.374320,0.2321120798587799,8.908797264099121,3.0509579181671143,0
2599380,2024-02-06 10:31:40.449321,0.3206496834754944,9.542917251586914,3.4386088848114014,0
2599457,2024-02-06 10:31:40.524426,-0.3732936680316925,10.882946014404297,3.139495372772217,0
2599533,2024-02-06 10:31:40.599316,-1.179703712463379,9.150480270385742,1.957398772239685,0
2599610,2024-02-06 10:31:40.674321,-1.5075321197509766,8.66472053527832,1.5266753435134888,0
2599686,2024-02-06 10:31:40.763623,-1.983720779418945,8.95665454864502,0.746587336063385,0
2599762,2024-02-06 10:31:40.838614,-1.335242748260498,10.162680625915527,2.290013074874878,0
2599839,2024-02-06 10:31:40.914306,-2.206261157989502,9.291662216186523,2.7279152870178223,0
2599916,2024-02-06 10:31:40.989328,-2.043543577194214,8.9590482711792,2.184725046157837,0
2599992,2024-02-06 10:31:41.064085,-2.093794584274292,8.95665454864502,1.9023619890213013,0
2600069,2024-02-06 10:31:41.138746,-2.10097336769104,9.638633728027344,2.591519355773926,0
2600145,2024-02-06 10:31:41.214337,-0.8662327527999878,10.722620964050291,2.902597427368164,0
2600221,2024-02-06 10:31:41.288714,-1.3472073078155518,8.94229793548584,1.5984625816345217,0
2600298,2024-02-06 10:31:41.364354,-0.7130866050720215,8.435001373291016,2.2038683891296387,0
2600375,2024-02-06 10:31:41.438827,-0.033500712364912,8.77479362487793,2.5029819011688232,0
2600451,2024-02-06 10:31:41.529016,0.0358936227858066,9.090658187866213,3.371607542037964,0
2600528,2024-02-06 10:31:41.603871,-0.2416837215423584,9.093050956726074,2.684842824935913,0
2600604,2024-02-06 10:31:41.679324,-0.3972227573394775,9.191160202026367,2.627413034439087,0
2600680,2024-02-06 10:31:41.753643,-0.0454652532935142,9.45438003540039,2.5388755798339844,0
2600757,2024-02-06 10:31:41.829008,-1.139024257659912,11.488351821899414,1.8497179746627808,0
2600833,2024-02-06 10:31:41.903642,-1.2658483982086182,9.21030330657959,1.42378032207489,0
2600910,2024-02-06 10:31:41.979303,-1.7970739603042605,9.585989952087402,1.0935590267181396,0
2600987,2024-02-06 10:31:42.054324,-1.945434331893921,9.258161544799805,2.141652822494507,0
2601063,2024-02-06 10:31:42.129314,-1.739644169807434,9.499845504760742,1.8497179746627808,0
2601139,2024-02-06 10:31:42.204300,-1.821003079414368,9.327555656433104,2.8930258750915527,0
2601216,2024-02-06 10:31:42.294130,-2.002864122390747,8.714971542358398,3.163424491882324,0
2601292,2024-02-06 10:31:42.369278,-1.9813278913497925,8.547467231750488,3.47210955619812,0
2601369,2024-02-06 10:31:42.444301,-1.591283917427063,9.928175926208496,3.426644325256348,0
2601446,2024-02-06 10:31:42.519299,-1.6989647150039673,8.880082130432129,2.483838558197021,0
2601522,2024-02-06 10:31:42.594371,-1.433351993560791,9.751100540161133,3.644398927688599,0
2601598,2024-02-06 10:31:42.668600,-0.3374000489711761,8.583361625671387,3.0389933586120605,0
2601675,2024-02-06 10:31:42.744328,0.461831271648407,8.679078102111816,2.759022951126098,0
2601751,2024-02-06 10:31:42.819301,-0.0837517827749252,9.521381378173828,3.3548572063446045,0
2601828,2024-02-06 10:31:42.909336,-0.0741801485419273,8.657541275024414,3.3285350799560547,0
2601905,2024-02-06 10:31:42.969269,-0.0598227009177207,8.597719192504883,3.007885456085205,0
2601981,2024-02-06 10:31:43.059304,-0.1603248417377472,8.628826141357422,3.232818841934204,0
2602057,2024-02-06 10:31:43.133574,-0.3709007501602173,8.841794967651367,3.2352118492126465,0
2602134,2024-02-06 10:31:43.209320,0.06460852175951,8.92554759979248,3.5941479206085205,0
2602210,2024-02-06 10:31:43.284315,-0.9763064980506896,9.136122703552246,4.1564812660217285,0
2602287,2024-02-06 10:31:43.359173,-0.3421858549118042,11.45724391937256,1.3687434196472168,0
2602364,2024-02-06 10:31:43.434408,-1.9597917795181277,8.884867668151855,1.208418607711792,0
2602440,2024-02-06 10:31:43.509285,-1.6534994840621948,8.626433372497559,-1.8592896461486816,0
2602516,2024-02-06 10:31:43.584308,-1.955005884170532,9.767850875854492,-0.8135887384414673,0
2602593,2024-02-06 10:31:43.659288,-1.8832186460494995,9.23423194885254,-0.5072965025901794,0
2602669,2024-02-06 10:31:43.734027,-1.2730270624160769,8.016242027282715,-1.2060257196426392,0
2602746,2024-02-06 10:31:43.824048,-2.0842230319976807,9.339520454406738,-2.380943536758423,0
2602823,2024-02-06 10:31:43.899287,-1.5075321197509766,9.432844161987305,-1.9693633317947388,0
2602899,2024-02-06 10:31:43.974313,-0.8016242384910583,9.901853561401367,-3.05574369430542,0
2602975,2024-02-06 10:31:44.049293,-0.2488624453544616,9.440022468566896,-3.443394660949707,0
2603052,2024-02-06 10:31:44.124312,0.6365135312080383,9.877924919128418,-4.422094345092773,0
2603128,2024-02-06 10:31:44.199252,0.5360113978385925,8.832223892211914,-4.620705604553223,0
2603205,2024-02-06 10:31:44.274255,1.2873845100402832,7.628591060638428,-4.663777828216553,0
2603282,2024-02-06 10:31:44.349278,1.868861198425293,7.116508483886719,-5.551546573638916,0
2603358,2024-02-06 10:31:44.424195,2.206261157989502,7.049507141113281,-5.963127136230469,0
2603434,2024-02-06 10:31:44.499264,2.495803117752075,6.824573993682861,-6.975327014923096,0
2603511,2024-02-06 10:31:44.589276,3.55825424194336,6.348385334014893,-8.210067749023438,0
2603587,2024-02-06 10:31:44.664289,3.8980472087860103,4.694885730743408,-8.918368339538574,0
2603664,2024-02-06 10:31:44.738990,3.960262775421143,4.34073543548584,-8.250746726989746,0
2603741,2024-02-06 10:31:44.814272,4.871960639953613,4.163660049438477,-8.827438354492188,0
2603817,2024-02-06 10:31:44.889389,4.520203590393066,3.969834566116333,-8.762829780578613,0
2603893,2024-02-06 10:31:44.964303,4.52259635925293,3.211282730102539,-8.344070434570312,0
2603970,2024-02-06 10:31:45.038582,4.618312835693359,3.046171903610229,-8.487645149230957,0
2604046,2024-02-06 10:31:45.114268,4.764279842376709,2.809274196624756,-8.169387817382812,0
2604123,2024-02-06 10:31:45.189308,4.936569213867188,2.696807384490967,-8.090422630310059,0
2604200,2024-02-06 10:31:45.279298,5.1399664878845215,2.9193477630615234,-8.435001373291016,0
2604276,2024-02-06 10:31:45.339254,5.506081581115723,2.928919553756714,-8.542681694030762,0
2604352,2024-02-06 10:31:45.429261,5.350542545318604,2.7925238609313965,-8.545074462890625,0
2604429,2024-02-06 10:31:45.504266,5.252433300018311,2.54366135597229,-8.528324127197266,0
2604505,2024-02-06 10:31:45.579283,5.439080238342285,2.6537351608276367,-7.733879089355469,0
2604582,2024-02-06 10:31:45.654281,5.125608921051025,2.840381860733032,-8.449358940124512,0
2604659,2024-02-06 10:31:45.729267,5.257219314575195,3.835831642150879,-8.573789596557617,0
2604735,2024-02-06 10:31:45.803564,5.338577747344971,5.66879940032959,-9.282090187072754,0
2604812,2024-02-06 10:31:45.879370,4.86956787109375,7.020792484283447,-9.63624095916748,0
2604888,2024-02-06 10:31:45.953681,3.687471389770508,6.95379114151001,-8.0736722946167,0
2604964,2024-02-06 10:31:46.028971,3.120352268218994,7.989920139312744,-6.192846298217773,0
2605041,2024-02-06 10:31:46.119254,1.304134964942932,9.298840522766112,-5.53001070022583,0
2605118,2024-02-06 10:31:46.194291,-0.1603248417377472,8.798723220825195,-4.4795241355896,0
2605194,2024-02-06 10:31:46.269250,-0.5120823383331299,8.176567077636719,-2.938491106033325,0
2605271,2024-02-06 10:31:46.344284,-1.560176134109497,7.233761310577393,-2.1895108222961426,0
2605347,2024-02-06 10:31:46.419262,-1.6558923721313477,6.965755462646484,-1.6104271411895752,0
2605423,2024-02-06 10:31:46.494256,-1.770751953125,8.076065063476562,0.1770751923322677,0
2605500,2024-02-06 10:31:46.569265,-2.4000868797302246,9.06194305419922,0.9739136099815368,0
2605577,2024-02-06 10:31:46.644075,-2.718343496322632,8.755650520324707,1.2538838386535645,0
2605653,2024-02-06 10:31:46.734323,-2.065079689025879,8.248353958129883,1.619998812675476,0
2605730,2024-02-06 10:31:46.839275,-1.995685338973999,8.803508758544922,2.0818300247192383,0
2605806,2024-02-06 10:31:46.884412,-1.2897775173187256,10.399578094482422,3.4314301013946533,0
2605882,2024-02-06 10:31:46.959229,-0.5958341360092163,10.476151466369627,2.7446656227111816,0
2605959,2024-02-06 10:31:47.033615,-0.8710185289382935,10.107644081115724,2.706378936767578,0
2606036,2024-02-06 10:31:47.109272,0.4522596299648285,8.49721622467041,1.6750357151031494,0
2606112,2024-02-06 10:31:47.184305,-0.0023929080925881,8.705399513244629,2.249333620071411,0
2606189,2024-02-06 10:31:47.259260,0.1411815732717514,8.877689361572266,2.936098337173462,0
2606265,2024-02-06 10:31:47.334316,-0.0622156113386154,9.188767433166504,2.9983139038085938,0
2606341,2024-02-06 10:31:47.409252,-0.0215361732989549,9.116979598999023,3.09881591796875,0
2606418,2024-02-06 10:31:47.484312,-0.3756865561008453,8.858545303344727,2.7733805179595947,0
2606495,2024-02-06 10:31:47.559262,-0.1196454018354415,9.265339851379396,3.015064239501953,0
2606571,2024-02-06 10:31:47.648500,-0.0215361732989549,10.09567928314209,2.4694812297821045,0
2606648,2024-02-06 10:31:47.723776,-0.1124666780233383,9.332341194152832,3.141888380050659,0
2606724,2024-02-06 10:31:47.799265,-1.2490980625152588,11.471601486206056,2.5340895652771,0
2606800,2024-02-06 10:31:47.874264,-1.6989647150039673,8.564218521118164,0.5431901216506958,0
2606877,2024-02-06 10:31:47.964239,-2.017221450805664,9.181588172912598,0.9404128789901732,0
2606954,2024-02-06 10:31:48.024257,-2.7733805179595947,9.231839179992676,0.1651106625795364,0
2607030,2024-02-06 10:31:48.099299,-2.17036771774292,10.19139575958252,0.9475916028022766,0
2607107,2024-02-06 10:31:48.174242,-2.5819478034973145,9.353878021240234,1.514710783958435,0
2607183,2024-02-06 10:31:48.249231,-2.392908096313477,9.174409866333008,1.1940611600875854,0
2607259,2024-02-06 10:31:48.323698,-2.0770442485809326,9.492666244506836,0.9691277742385864,0
2607336,2024-02-06 10:31:48.413650,-1.4788172245025637,9.212696075439451,2.380943536758423,0
2607413,2024-02-06 10:31:48.489240,-1.115095138549805,8.971012115478516,2.9887421131134038,0
2607489,2024-02-06 10:31:48.564230,-0.5934411883354187,9.717599868774414,3.534325361251831,0
2607566,2024-02-06 10:31:48.639214,-1.0026284456253052,9.789386749267578,3.2088897228240967,0
2607642,2024-02-06 10:31:48.714329,-0.9308412671089172,9.150480270385742,3.08206558227539,0
2607718,2024-02-06 10:31:48.789236,-0.7848738431930542,8.533110618591309,2.8260245323181152,0
2607795,2024-02-06 10:31:48.864284,-0.3254354894161224,8.894439697265625,2.1655819416046143,0
2607872,2024-02-06 10:31:48.939212,0.27997025847435,9.576417922973633,2.9145619869232178,0
2607948,2024-02-06 10:31:49.014227,0.0789659693837165,9.99996280670166,2.9815635681152344,0
2608025,2024-02-06 10:31:49.089220,0.2345049977302551,8.880082130432129,2.6465563774108887,0
2608101,2024-02-06 10:31:49.179222,0.4163660109043121,9.262947082519531,2.936098337173462,0
2608177,2024-02-06 10:31:49.254163,0.3302213251590729,8.997334480285645,3.0102784633636475,0
2608254,2024-02-06 10:31:49.329166,0.2297191768884658,8.877689361572266,3.40271520614624,0
2608331,2024-02-06 10:31:49.404250,0.184253916144371,8.908797264099121,3.563040256500244,0
2608407,2024-02-06 10:31:49.479367,-0.016750356182456,8.954261779785156,3.462538003921509,0
2608484,2024-02-06 10:31:49.554224,-0.2345049977302551,8.746079444885254,3.8765110969543457,0
2608560,2024-02-06 10:31:49.629207,-0.4044014811515808,9.361056327819824,4.010513782501221,0
2608636,2024-02-06 10:31:49.704218,-0.284756064414978,9.303627014160156,2.921740770339966,0
2608713,2024-02-06 10:31:49.793955,-0.540797233581543,8.652755737304688,2.2110471725463867,0
2608790,2024-02-06 10:31:49.854199,-0.8423036336898804,9.179195404052734,2.148831367492676,0
2608866,2024-02-06 10:31:49.944213,-0.9667348861694336,8.971012115478516,1.148595929145813,0
2608943,2024-02-06 10:31:50.019221,-0.0574297942221164,7.585518836975098,0.3589362204074859,0
2609019,2024-02-06 10:31:50.094148,-0.9308412671089172,5.58983325958252,-0.6915504336357117,1
2609095,2024-02-06 10:31:50.169228,-0.0239290818572044,6.204810619354248,-0.6963362693786621,1
2609172,2024-02-06 10:31:50.244320,-1.3807079792022705,8.533110618591309,-0.4211518168449402,1
2609249,2024-02-06 10:31:50.319197,-0.8566610813140869,8.985369682312012,-0.7298369407653809,1
2609325,2024-02-06 10:31:50.394254,-1.514710783958435,10.028677940368652,-0.8829830884933472,1
2609402,2024-02-06 10:31:50.469251,-0.5814766883850098,10.406757354736328,-1.3831008672714231,1
2609478,2024-02-06 10:31:50.544239,-1.9932924509048464,9.172017097473145,-1.6295703649520874,1
2609554,2024-02-06 10:31:50.619205,-1.6295703649520874,7.523303031921387,-1.2108114957809448,1
2609631,2024-02-06 10:31:50.694211,1.5984625816345217,12.763772010803224,0.3780794739723205,1
2609708,2024-02-06 10:31:50.783508,-5.367292881011963,5.046643257141113,-4.840853214263916,1
2609784,2024-02-06 10:31:50.858513,-1.0696299076080322,7.394085884094238,-5.34814977645874,1
2609861,2024-02-06 10:31:50.934269,7.879846572875977,1.6463208198547363,-11.23231029510498,1
2609937,2024-02-06 10:31:51.024215,0.4929390549659729,3.3835721015930176,-7.9683837890625,1
2610013,2024-02-06 10:31:51.084450,0.3062922358512878,0.3254354894161224,-10.057393074035645,1
2610090,2024-02-06 10:31:51.159655,4.364664554595947,1.5673547983169556,-6.807823657989502,1
2610166,2024-02-06 10:31:51.234499,3.677899837493897,3.510396242141724,-10.961912155151367,1
2610243,2024-02-06 10:31:51.309263,-0.1770751923322677,4.558489799499512,-12.615411758422852,1
2610320,2024-02-06 10:31:51.384282,5.637691497802734,8.624040603637695,-10.646048545837402,1
2610396,2024-02-06 10:31:51.459194,7.875060558319092,5.544368267059326,-7.401264667510986,1
2610473,2024-02-06 10:31:51.549201,4.28809118270874,4.857603549957275,-8.21963882446289,1
2610549,2024-02-06 10:31:51.624172,3.87172532081604,4.465166568756104,-7.176331520080566,1
2610625,2024-02-06 10:31:51.714220,3.596540927886963,4.9078545570373535,-6.714499950408936,1
2610702,2024-02-06 10:31:51.774186,2.857132196426392,0.8805902004241943,-7.597483158111572,1
2610779,2024-02-06 10:31:51.849204,1.964577555656433,2.940884113311768,-11.014555931091309,1
2610855,2024-02-06 10:31:51.924250,1.844932198524475,2.3522286415100098,-8.901618003845215,1
2610932,2024-02-06 10:31:51.999200,1.6702498197555542,2.615448474884033,-9.626668930053713,1
2611008,2024-02-06 10:31:52.074238,1.1557745933532717,2.304370403289795,-9.298840522766112,1
2611084,2024-02-06 10:31:52.149195,0.5455830693244934,1.1342384815216064,-9.600347518920898,1
2611161,2024-02-06 10:31:52.239221,0.1387886703014373,-0.0622156113386154,-10.153108596801758,1
2611238,2024-02-06 10:31:52.314191,-0.12921704351902,-0.260826975107193,-10.258397102355955,1
2611314,2024-02-06 10:31:52.389212,-0.3038993179798126,-0.2871489822864532,-10.143537521362305,1
2611391,2024-02-06 10:31:52.464217,-0.3780794739723205,-0.308685153722763,-10.17464542388916,1
2611467,2024-02-06 10:31:52.539205,-0.2895418703556061,-0.2823631465435028,-10.256004333496094,1
2611543,2024-02-06 10:31:52.614229,0.1770751923322677,-0.8925547003746033,-13.041349411010742,1
2611620,2024-02-06 10:31:52.688981,0.0957163274288177,3.500824451446533,-9.093050956726074,1
2611697,2024-02-06 10:31:52.763591,0.7920525670051575,6.482388019561768,-10.366077423095703,1
2611773,2024-02-06 10:31:52.839175,0.2464695274829864,5.635298728942871,-7.927704334259033,1
2611850,2024-02-06 10:31:52.929200,0.2345049977302551,5.149538040161133,-7.365371227264404,1
2611926,2024-02-06 10:31:52.989188,0.8758043646812439,5.166288375854492,-7.729093074798584,1
2612002,2024-02-06 10:31:53.078805,-0.1268241256475448,5.745372295379639,-7.2050461769104,1
2612079,2024-02-06 10:31:53.154183,0.6963362693786621,6.549389362335205,-7.571161270141602,1
2612156,2024-02-06 10:31:53.229195,0.1722893863916397,6.582890033721924,-7.185903072357178,1
2612232,2024-02-06 10:31:53.304180,0.5312256217002869,6.972934246063232,-7.317512989044189,1
2612309,2024-02-06 10:31:53.379210,0.8805902004241943,6.781501770019531,-7.69080638885498,1
2612385,2024-02-06 10:31:53.454160,0.1076808646321296,6.700142860412598,-7.697985172271728,1
2612461,2024-02-06 10:31:53.529197,1.3472073078155518,7.475444793701172,-7.800880432128906,1
2612538,2024-02-06 10:31:53.604098,0.7059078812599182,7.372550010681152,-9.329948425292969,1
2612615,2024-02-06 10:31:53.678479,0.6556568145751953,6.886789321899414,-8.33449935913086,1
2612691,2024-02-06 10:31:53.768493,0.8662327527999878,7.073436260223389,-7.62141227722168,1
2612768,2024-02-06 10:31:53.859144,0.8877689242362976,6.613997936248779,-7.209832191467285,1
2612844,2024-02-06 10:31:53.919027,0.184253916144371,6.281383514404297,-6.362742424011231,1
2612920,2024-02-06 10:31:53.993624,1.2251689434051514,6.252668857574463,-5.618548393249512,1
2612997,2024-02-06 10:31:54.069193,-0.0765730589628219,5.817159652709961,-5.917661666870117,1
2613074,2024-02-06 10:31:54.144184,1.0959519147872925,6.424958229064941,-7.078222274780273,1
2613150,2024-02-06 10:31:54.218580,1.81382429599762,6.386671543121338,-8.413464546203613,1
2613227,2024-02-06 10:31:54.294171,1.4883887767791748,5.453437328338623,-8.406286239624023,1
2613303,2024-02-06 10:31:54.369151,0.2368979007005691,4.974855899810791,-9.229446411132812,1
2613380,2024-02-06 10:31:54.443972,1.141417145729065,5.742979526519775,-8.123923301696777,1
2613457,2024-02-06 10:31:54.534258,1.179703712463379,5.467794895172119,-8.734114646911621,0
2613533,2024-02-06 10:31:54.609155,0.1220383122563362,5.125608921051025,-7.757808208465576,0
2613610,2024-02-06 10:31:54.684230,-0.3110780417919159,5.652049064636231,-8.858545303344727,0
2613686,2024-02-06 10:31:54.759167,-1.904754877090454,5.769301414489746,-9.317984580993652,0
2613762,2024-02-06 10:31:54.834198,-2.979170560836792,3.902832984924317,-9.13133716583252,0
2613839,2024-02-06 10:31:54.908906,-3.577397584915161,7.918132781982422,-9.08108615875244,0
2613916,2024-02-06 10:31:54.984162,-5.85066032409668,7.286405086517334,-8.94947624206543,0
2613992,2024-02-06 10:31:55.058591,-4.572847366333008,7.281619548797607,-7.611840724945068,0
2614069,2024-02-06 10:31:55.133507,-4.620705604553223,6.51828145980835,-6.066021919250488,0
2614145,2024-02-06 10:31:55.209178,-4.362271308898926,7.250511646270752,-3.752079963684082,0
2614221,2024-02-06 10:31:55.298399,-4.168446063995361,7.848738670349121,-3.091637372970581,0
2614298,2024-02-06 10:31:55.374171,-3.0653152465820312,7.26486873626709,-2.0961875915527344,0
2614375,2024-02-06 10:31:55.449191,-1.3735291957855225,7.949240684509277,0.0143574485555291,0
2614451,2024-02-06 10:31:55.524174,-0.9739136099815368,7.054293155670166,-1.139024257659912,0
2614528,2024-02-06 10:31:55.599159,-0.904519259929657,8.798723220825195,-0.5814766883850098,0
2614604,2024-02-06 10:31:55.674122,1.7516087293624878,13.268675804138184,-1.689393162727356,0
2614680,2024-02-06 10:31:55.748432,2.67287826538086,11.270597457885742,-1.2538838386535645,0
2614757,2024-02-06 10:31:55.823447,2.134474039077759,13.577360153198242,0.0071787242777645,0
2614833,2024-02-06 10:31:55.899164,1.4285660982131958,12.876238822937012,-0.619763195514679,0
2614910,2024-02-06 10:31:55.974168,1.749215841293335,12.120079040527344,0.3565433025360107,0
2614987,2024-02-06 10:31:56.063373,2.184725046157837,10.117215156555176,-0.3565433025360107,0
2615063,2024-02-06 10:31:56.139173,1.706143498420715,8.375178337097168,-1.2203831672668457,0
2615139,2024-02-06 10:31:56.213661,1.8521108627319336,7.116508483886719,-0.9882710576057434,0
2615216,2024-02-06 10:31:56.289200,1.1055235862731934,6.027735710144043,-0.7729093432426453,0
2615292,2024-02-06 10:31:56.363669,1.1868823766708374,6.173702716827393,-0.4522596299648285,0
2615369,2024-02-06 10:31:56.439173,0.8973405361175537,7.633376598358154,0.2464695274829864,0
2615446,2024-02-06 10:31:56.513721,0.5168681740760803,9.21987533569336,1.4070299863815308,0
2615522,2024-02-06 10:31:56.589213,0.339792937040329,9.152873039245604,2.3067634105682373,0
2615598,2024-02-06 10:31:56.663787,-0.2416837215423584,8.705399513244629,2.206261157989502,0
2615675,2024-02-06 10:31:56.739153,0.1507532149553299,9.638633728027344,2.2660839557647705,0
2615751,2024-02-06 10:31:56.829141,0.0382865294814109,12.488587379455566,2.038757801055908,0
2615828,2024-02-06 10:31:56.903809,-1.275420069694519,10.19857406616211,0.3972227573394775,0
2615905,2024-02-06 10:31:56.979170,-2.2158329486846924,9.736742973327637,0.1746822893619537,0
2615981,2024-02-06 10:31:57.054169,-2.0411505699157715,8.40389347076416,-2.6034839153289795,0
2616057,2024-02-06 10:31:57.129135,-2.5532329082489014,10.406757354736328,0.5647262930870056,0
2616134,2024-02-06 10:31:57.204187,-2.857132196426392,9.274911880493164,0.2201475501060485,0
2616210,2024-02-06 10:31:57.279083,-3.084458589553833,9.411307334899902,1.0672370195388794,0
2616287,2024-02-06 10:31:57.354145,-3.0724940299987797,9.30601978302002,0.9786993861198424,0
2616364,2024-02-06 10:31:57.429139,-2.4623024463653564,8.77479362487793,1.4668526649475098,0
2616440,2024-02-06 10:31:57.504142,-2.242154836654663,8.597719192504883,1.806645631790161,0
2616516,2024-02-06 10:31:57.594177,-1.6774286031723022,8.42782211303711,3.2926416397094727,0
2616593,2024-02-06 10:31:57.668749,-1.8784328699111936,10.887731552124023,3.55825424194336,0
2616669,2024-02-06 10:31:57.743394,-0.8207674622535706,9.176802635192873,3.7137932777404794,0
2616746,2024-02-06 10:31:57.818396,-0.9260554313659668,7.906168460845947,1.8257888555526731,0
2616823,2024-02-06 10:31:57.893359,-0.1148595884442329,9.05237102508545,1.8353605270385744,0
2616899,2024-02-06 10:31:57.968787,0.0622156113386154,10.193788528442385,3.309391975402832,0
2616975,2024-02-06 10:31:58.044175,-0.1005021408200264,9.12415885925293,2.9624202251434326,0
2617052,2024-02-06 10:31:58.118993,0.0550368875265121,8.647970199584961,2.3857293128967285,0
2617128,2024-02-06 10:31:58.193990,0.3565433025360107,9.2725191116333,2.72552227973938,0
2617205,2024-02-06 10:31:58.269153,0.3421858549118042,9.349091529846191,2.9265265464782715,0
2617282,2024-02-06 10:31:58.344154,0.06460852175951,9.016477584838867,3.287855625152588,0
2617358,2024-02-06 10:31:58.433745,-0.0526439771056175,9.023656845092772,3.1083877086639404,0
2617434,2024-02-06 10:31:58.509176,-1.0002355575561523,9.485487937927246,3.687471389770508,0
2617511,2024-02-06 10:31:58.584207,-0.9571632146835328,10.732192993164062,3.062922477722168,0
2617587,2024-02-06 10:31:58.659111,-1.1820966005325315,9.899460792541504,0.5240468978881836,0
2617664,2024-02-06 10:31:58.734176,-1.555390238761902,8.937511444091797,0.6987291574478149,0
2617741,2024-02-06 10:31:58.809087,-1.5266753435134888,9.727170944213867,0.6317277550697327,0
2617817,2024-02-06 10:31:58.884205,-1.1342384815216064,9.763065338134766,2.072258472442627,0
2617893,2024-02-06 10:31:58.958997,-1.131845474243164,8.93990421295166,1.770751953125,0
2617970,2024-02-06 10:31:59.034168,-1.6367491483688354,9.181588172912598,1.916719436645508,0
2618046,2024-02-06 10:31:59.123932,-1.5673547983169556,9.291662216186523,2.0052568912506104,0
2618123,2024-02-06 10:31:59.199132,-1.4309589862823486,9.286876678466797,2.4000868797302246,0
2618200,2024-02-06 10:31:59.274142,-1.395065426826477,9.195945739746094,2.806881189346313,0
2618276,2024-02-06 10:31:59.348970,-1.1844894886016846,9.222268104553224,3.225640058517456,0
2618352,2024-02-06 10:31:59.424120,-0.9786993861198424,12.053077697753906,3.318963527679444,0
2618429,2024-02-06 10:31:59.498996,-0.5479759573936462,9.198338508605955,2.0890088081359863,0
2618505,2024-02-06 10:31:59.573886,-0.2895418703556061,8.06410026550293,0.0047858161851763,0
2618582,2024-02-06 10:31:59.649114,-0.2010042816400528,10.550332069396973,1.809038519859314,0
2618659,2024-02-06 10:31:59.724143,-0.5240468978881836,9.514202117919922,2.177546262741089,0
2618735,2024-02-06 10:31:59.799115,-0.2943277060985565,9.116979598999023,1.5793193578720093,0
2618811,2024-02-06 10:31:59.889209,-0.1794681102037429,9.497451782226562,2.431194543838501,0
2618888,2024-02-06 10:31:59.964144,-0.461831271648407,8.82983112335205,2.756630182266236,0
2618964,2024-02-06 10:32:00.039112,-0.5599405169487,8.992548942565918,2.9624202251434326,0
2619041,2024-02-06 10:32:00.114090,-0.4833674430847168,9.284482955932615,3.26392674446106,0
2619118,2024-02-06 10:32:00.189149,-1.3424214124679563,11.17966651916504,3.113173484802246,0
2619194,2024-02-06 10:32:00.264144,-1.4668526649475098,11.071986198425291,1.318492412567139,0
2619270,2024-02-06 10:32:00.339102,-1.5984625816345217,8.549860954284668,1.1820966005325315,0
2619347,2024-02-06 10:32:00.414108,-1.777930736541748,9.167230606079102,0.5599405169487,0
2619423,2024-02-06 10:32:00.489153,-1.9597917795181277,9.664956092834473,0.9691277742385864,0
2619500,2024-02-06 10:32:00.563536,-1.2873845100402832,9.765458106994627,1.6965718269348145,0
2619577,2024-02-06 10:32:00.654110,-1.8114314079284668,9.576417922973633,2.0196144580841064,0
2619653,2024-02-06 10:32:00.728901,-1.7444299459457395,9.327555656433104,2.0076498985290527,0
2619729,2024-02-06 10:32:00.803391,-1.5697476863861084,9.545310020446776,1.4118157625198364,0
2619806,2024-02-06 10:32:00.878939,-0.9954497814178468,8.839402198791504,2.950455665588379,0
2619882,2024-02-06 10:32:00.954119,-1.1725249290466309,8.652755737304688,3.0174570083618164,0
2619959,2024-02-06 10:32:01.029077,-1.4596738815307615,8.868117332458496,3.7114005088806152,0
2620036,2024-02-06 10:32:01.103777,-1.0768086910247805,10.303862571716309,3.1658174991607666,0
2620112,2024-02-06 10:32:01.179127,-0.0981092303991317,8.257925987243652,1.928683876991272,0
2620189,2024-02-06 10:32:01.253981,0.0406794361770153,8.545074462890625,1.081594467163086,0
2620265,2024-02-06 10:32:01.328936,-0.067001424729824,8.841794967651367,1.945434331893921,0
2620341,2024-02-06 10:32:01.419085,0.12921704351902,9.040407180786133,1.1294525861740112,0
2620418,2024-02-06 10:32:01.494132,0.0837517827749252,8.647970199584961,0.6891575455665588,0
2620495,2024-02-06 10:32:01.569099,0.4355092644691467,8.423036575317383,-0.0239290818572044,0
2620571,2024-02-06 10:32:01.644131,0.3254354894161224,8.248353958129883,-0.1316099464893341,0
2620648,2024-02-06 10:32:01.718911,0.2919347882270813,8.39432144165039,0.9499844908714294,0
2620724,2024-02-06 10:32:01.793474,-0.0143574485555291,8.41107177734375,0.5719050168991089,0
2620800,2024-02-06 10:32:01.869103,-0.9619490504264832,8.736507415771484,0.6771929860115051,0
2620877,2024-02-06 10:32:01.944093,-1.3232781887054443,8.994941711425781,2.6034839153289795,0
2620954,2024-02-06 10:32:02.018883,-1.9526129961013796,9.057157516479492,3.5869691371917725,0
2621030,2024-02-06 10:32:02.094002,-1.770751953125,7.274440765380859,3.3476784229278564,1
2621107,2024-02-06 10:32:02.229096,-5.690335273742676,4.888711452484131,2.79491662979126,1
2621183,2024-02-06 10:32:02.258580,-8.39432144165039,9.734350204467772,-11.227524757385254,1
2621259,2024-02-06 10:32:02.333964,-2.435980319976806,12.402442932128906,-0.4809745252132416,1
2621336,2024-02-06 10:32:02.408991,-0.12921704351902,12.804450988769531,-1.5075321197509766,1
2621413,2024-02-06 10:32:02.484110,-1.5027462244033811,13.060492515563965,4.343128204345703,1
2621489,2024-02-06 10:32:02.558918,4.146909713745117,4.357485771179199,-1.5960696935653689,1
2621566,2024-02-06 10:32:02.633938,6.9801130294799805,5.666406154632568,1.2825987339019775,1
2621642,2024-02-06 10:32:02.709096,16.37945556640625,1.9478272199630735,10.043035507202148,1
2621718,2024-02-06 10:32:02.784157,9.267732620239258,2.514946460723877,4.589597702026367,1
2621795,2024-02-06 10:32:02.874076,15.01789093017578,5.266790866851807,2.840381860733032,1
2621872,2024-02-06 10:32:02.934201,-3.6204700469970703,3.043779134750366,2.495803117752075,1
2621948,2024-02-06 10:32:03.024072,10.062178611755373,2.4048726558685303,0.4450809061527252,1
2622025,2024-02-06 10:32:03.099075,5.439080238342285,-0.4307234585285187,4.029657363891602,1
2622101,2024-02-06 10:32:03.174098,10.59101104736328,0.3972227573394775,3.26392674446106,1
2622177,2024-02-06 10:32:03.249096,8.40389347076416,0.8303391337394714,4.589597702026367,1
2622254,2024-02-06 10:32:03.324090,9.181588172912598,1.9765421152114868,6.4393157958984375,1
2622331,2024-02-06 10:32:03.399126,7.977955818176269,1.5266753435134888,6.491959571838379,1
2622407,2024-02-06 10:32:03.474091,7.987527370452881,1.1868823766708374,5.98944902420044,1
2622484,2024-02-06 10:32:03.549076,8.200495719909668,1.4668526649475098,5.137573719024658,1
2622560,2024-02-06 10:32:03.639087,8.545074462890625,2.0626866817474365,3.9363338947296143,1
2622636,2024-02-06 10:32:03.699063,8.533110618591309,2.263690948486328,3.441001892089844,1
2622713,2024-02-06 10:32:03.789074,8.781972885131836,3.139495372772217,2.301977634429932,1
2622790,2024-02-06 10:32:03.864081,9.057157516479492,2.940884113311768,2.2038683891296387,1
2622866,2024-02-06 10:32:03.939080,8.415857315063477,2.5747690200805664,2.218225717544556,1
2622943,2024-02-06 10:32:04.013972,9.61949062347412,3.103601694107056,1.5482115745544434,1
2623019,2024-02-06 10:32:04.089505,9.753493309020996,1.904754877090454,2.261298179626465,1
2623095,2024-02-06 10:32:04.164508,9.36823558807373,2.065079689025879,2.579555034637451,1
2623172,2024-02-06 10:32:04.238368,9.727170944213867,4.3526997566223145,3.5726118087768555,1
2623249,2024-02-06 10:32:04.313917,9.490273475646973,5.376864433288574,3.407501220703125,1
2623325,2024-02-06 10:32:04.404083,8.439786911010742,4.417308330535889,2.9121692180633545,1
2623402,2024-02-06 10:32:04.463925,7.453908920288086,4.515417575836182,2.567590475082397,1
2623478,2024-02-06 10:32:04.554056,7.063864707946777,5.618548393249512,4.283305644989014,1
2623554,2024-02-06 10:32:04.629051,5.900911331176758,5.742979526519775,4.199553489685059,1
2623631,2024-02-06 10:32:04.704087,5.671192169189453,5.192610740661621,3.584576368331909,1
2623708,2024-02-06 10:32:04.778985,5.991841793060303,5.652049064636231,2.5891265869140625,1
2623784,2024-02-06 10:32:04.853916,7.171545505523682,6.4321370124816895,3.6372203826904297,1
2623861,2024-02-06 10:32:04.928818,7.9707770347595215,5.740586280822754,3.3333208560943604,1
2623937,2024-02-06 10:32:05.004066,7.523303031921387,4.962891578674316,2.754237174987793,1
2624013,2024-02-06 10:32:05.078987,5.161502838134766,6.470423698425293,1.710929274559021,1
2624090,2024-02-06 10:32:05.168339,7.049507141113281,9.394556999206545,1.179703712463379,1
2624166,2024-02-06 10:32:05.228832,6.621176719665527,7.245725631713867,0.1268241256475448,1
2624243,2024-02-06 10:32:05.319055,4.972463130950928,8.14306640625,0.181861013174057,1
2624320,2024-02-06 10:32:05.394069,4.453201770782471,8.391928672790527,0.5719050168991089,1
2624396,2024-02-06 10:32:05.469076,4.6757426261901855,11.852073669433594,-3.141888380050659,1
2624472,2024-02-06 10:32:05.544055,3.7712230682373047,8.164602279663086,-0.1124666780233383,1
2624549,2024-02-06 10:32:05.619063,3.084458589553833,8.382356643676758,0.2368979007005691,1
2624625,2024-02-06 10:32:05.709087,2.1871180534362797,9.344305992126465,-0.6317277550697327,1
2624702,2024-02-06 10:32:05.768344,2.256512403488159,9.442415237426758,-0.7418015003204346,1
2624779,2024-02-06 10:32:05.843344,2.0674726963043213,9.605133056640623,-0.7968384027481079,1
2624855,2024-02-06 10:32:05.934096,1.2849916219711304,9.095443725585938,-3.4314301013946533,1
2624932,2024-02-06 10:32:05.994067,0.7800880670547485,9.4950590133667,-4.871960639953613,1
2625008,2024-02-06 10:32:06.083902,1.3424214124679563,10.552724838256836,-6.530246257781982,1
2625084,2024-02-06 10:32:06.159028,1.5793193578720093,10.870981216430664,-4.541739463806152,1
2625161,2024-02-06 10:32:06.233536,1.8616825342178345,10.421114921569824,-5.470187664031982,1
2625238,2024-02-06 10:32:06.309009,1.966970443725586,8.207674980163574,-5.419936656951904,1
2625314,2024-02-06 10:32:06.383960,2.1823322772979736,7.044721603393555,-6.207203388214111,1
2625391,2024-02-06 10:32:06.459047,3.7784018516540527,7.860702991485596,-5.101680278778076,1
2625467,2024-02-06 10:32:06.533925,4.417308330535889,7.820023536682129,-4.589597702026367,1
2625543,2024-02-06 10:32:06.609102,4.953319549560547,7.401264667510986,-5.17346715927124,1
2625620,2024-02-06 10:32:06.699067,5.001177787780762,6.463244915008545,-3.625255823135376,1
2625697,2024-02-06 10:32:06.803305,4.388593673706055,5.309863090515137,-3.6659352779388423,1
2625773,2024-02-06 10:32:06.894066,2.3282995223999023,6.487174034118652,-1.8521108627319336,1
2625850,2024-02-06 10:32:06.923431,1.4094228744506836,8.547467231750488,-0.9308412671089172,1
2625926,2024-02-06 10:32:06.999115,0.7059078812599182,9.253376007080078,-0.8949476480484009,1
2626002,2024-02-06 10:32:07.074025,1.1366313695907593,9.590775489807127,-0.8327320218086243,1
2626079,2024-02-06 10:32:07.163663,0.3015064299106598,13.862116813659668,-0.600619912147522,1
2626156,2024-02-06 10:32:07.223242,-2.790130853652954,13.299782752990724,-0.2153617292642593,1
2626232,2024-02-06 10:32:07.298822,-3.613291263580322,11.213167190551758,-0.1172524988651275,1
2626309,2024-02-06 10:32:07.374042,-1.916719436645508,10.861410140991213,1.7348583936691284,1
2626385,2024-02-06 10:32:07.464038,-1.356778860092163,9.8444242477417,0.6365135312080383,1
2626461,2024-02-06 10:32:07.524049,-0.8853759765625,10.179430961608888,0.8997334241867065,1
2626538,2024-02-06 10:32:07.629060,-0.033500712364912,10.131572723388672,0.7322298884391785,1
2626615,2024-02-06 10:32:07.688454,-0.3780794739723205,9.317984580993652,1.0361292362213137,1
2626691,2024-02-06 10:32:07.764147,-0.6245490312576294,8.822651863098145,1.1820966005325315,1
2626768,2024-02-06 10:32:07.838231,-0.8159816861152649,8.695828437805176,0.6269419193267822,1
2626844,2024-02-06 10:32:07.913239,-0.4235447347164154,8.693434715270996,0.6724071502685547,1
2626920,2024-02-06 10:32:07.989034,-0.2464695274829864,6.50153112411499,-0.0239290818572044,0
2626997,2024-02-06 10:32:08.063866,0.0574297942221164,6.937040328979492,0.3015064299106598,0
2627074,2024-02-06 10:32:08.138877,-0.8925547003746033,8.884867668151855,0.98109233379364,0
2627150,2024-02-06 10:32:08.228914,-1.299349069595337,9.71520709991455,1.7037506103515625,0
2627227,2024-02-06 10:32:08.289052,-1.6247845888137815,9.770243644714355,1.6032484769821167,0
2627303,2024-02-06 10:32:08.379141,-1.1342384815216064,8.633612632751465,1.9191123247146609,0
2627379,2024-02-06 10:32:08.453655,-1.4357448816299438,9.528559684753418,2.297191858291626,0
2627456,2024-02-06 10:32:08.529029,-1.268241286277771,10.3804349899292,2.311549186706543,0
2627533,2024-02-06 10:32:08.604007,1.1892752647399902,8.30817699432373,0.7513731122016907,0
2627609,2024-02-06 10:32:08.678824,0.4857603311538696,9.58359718322754,1.404637098312378,0
2627686,2024-02-06 10:32:08.754000,0.4020085632801056,9.346698760986328,1.6606782674789429,0
2627762,2024-02-06 10:32:08.828997,0.4570454359054565,9.188767433166504,1.6630711555480957,0
2627838,2024-02-06 10:32:08.904006,0.44268798828125,9.621883392333984,1.9932924509048464,0
2627915,2024-02-06 10:32:08.994012,0.1459673941135406,9.119372367858888,2.3498356342315674,0
2627992,2024-02-06 10:32:09.054014,0.4546525478363037,9.418486595153809,2.0746512413024902,0
2628069,2024-02-06 10:32:09.143818,0.2249333560466766,9.413700103759766,2.493410348892212,0
2628145,2024-02-06 10:32:09.219018,-0.4331163763999939,9.451987266540527,2.692021608352661,0
2628221,2024-02-06 10:32:09.293979,-0.9116979837417604,10.51443862915039,2.0890088081359863,0
2628298,2024-02-06 10:32:09.368830,-0.4091872870922088,9.432844161987305,2.756630182266236,0
2628375,2024-02-06 10:32:09.444031,-0.6580497026443481,8.657541275024414,2.2014753818511963,0
2628451,2024-02-06 10:32:09.548998,-0.8614469170570374,9.169623374938965,1.799466848373413,0
2628528,2024-02-06 10:32:09.638871,-1.591283917427063,9.47113037109375,1.3089207410812378,0
2628604,2024-02-06 10:32:09.668442,-1.6032484769821167,9.820494651794434,1.3783150911331177,0
2628680,2024-02-06 10:32:09.759075,-1.8353605270385744,9.729564666748049,1.806645631790161,0
2628757,2024-02-06 10:32:09.834046,-2.060293912887573,9.203125,1.6558923721313477,0
2628833,2024-02-06 10:32:09.909028,-1.5960696935653689,8.731721878051758,2.184725046157837,0
2628910,2024-02-06 10:32:09.983560,-1.8951832056045528,8.913582801818848,1.8832186460494995,0
2628987,2024-02-06 10:32:10.059042,-1.9215052127838133,8.985369682312012,1.739644169807434,0
2629063,2024-02-06 10:32:10.134076,-1.1533817052841189,9.918603897094728,1.6295703649520874,0
2629139,2024-02-06 10:32:10.209032,-0.4809745252132416,8.930333137512207,0.5623334050178528,0
2629216,2024-02-06 10:32:10.284089,-0.2368979007005691,8.930333137512207,-0.2392908036708831,0
2629292,2024-02-06 10:32:10.359048,-0.387651115655899,9.66256332397461,-0.260826975107193,0
2629369,2024-02-06 10:32:10.433826,-0.27997025847435,8.525931358337402,-0.1986113786697387,0
2629446,2024-02-06 10:32:10.523807,0.0909305065870285,7.60466194152832,-0.6556568145751953,0
2629522,2024-02-06 10:32:10.598794,0.6125844717025757,7.334263324737549,-0.6987291574478149,0
2629598,2024-02-06 10:32:10.673786,0.0526439771056175,7.585518836975098,-0.2201475501060485,0
2629675,2024-02-06 10:32:10.748336,0.0741801485419273,8.796330451965332,-0.7489802241325378,0
2629751,2024-02-06 10:32:10.823186,1.1892752647399902,9.188767433166504,-0.4594383537769317,0
2629828,2024-02-06 10:32:10.898892,1.5864980220794678,8.267497062683105,-0.0119645409286022,0
2629905,2024-02-06 10:32:10.973801,1.6941789388656616,5.465402126312256,0.7178724408149719,0
2629981,2024-02-06 10:32:11.049018,6.377099990844727,8.095208168029785,-12.421586036682127,0
2630057,2024-02-06 10:32:11.123973,1.8712540864944456,13.455322265625,-4.814530849456787,0
2630134,2024-02-06 10:32:11.198462,-2.4072654247283936,5.664013385772705,-1.9334697723388672,1
2630210,2024-02-06 10:32:11.288959,-3.385964870452881,10.066964149475098,-2.5340895652771,1
2630287,2024-02-06 10:32:11.363281,-10.8685884475708,34.15158462524414,-13.972189903259276,1
2630364,2024-02-06 10:32:11.438290,-2.900204658508301,2.7709875106811523,2.6944146156311035,1
2630440,2024-02-06 10:32:11.513373,-8.289033889770508,7.688413619995117,-1.012200117111206,1
2630517,2024-02-06 10:32:11.589020,-19.030797958374023,11.071986198425291,-1.6056413650512695,1
2630593,2024-02-06 10:32:11.664042,-11.098307609558104,1.81382429599762,1.0409150123596191,1
2630669,2024-02-06 10:32:11.738967,-9.267732620239258,0.8901618123054504,2.670485496520996,1
2630746,2024-02-06 10:32:11.813347,-20.547901153564453,-0.2225404530763626,1.7133221626281738,1
2630823,2024-02-06 10:32:11.888419,-7.224189758300781,0.7011220455169678,4.6015625,1
2630899,2024-02-06 10:32:11.964119,-8.746079444885254,-2.244547843933105,4.4938812255859375,1
2630976,2024-02-06 10:32:12.038809,-5.747765064239502,-1.1629533767700195,6.147380828857422,1
2631052,2024-02-06 10:32:12.128625,-7.458694458007812,-2.928919553756714,5.661620616912842,1
2631128,2024-02-06 10:32:12.203888,-7.066257476806641,-0.758551836013794,7.078222274780273,1
2631205,2024-02-06 10:32:12.278871,-7.267261981964111,-1.2036327123641968,6.130630493164063,1
2631282,2024-02-06 10:32:12.353810,-7.738664627075195,-0.3709007501602173,5.769301414489746,1
2631358,2024-02-06 10:32:12.428495,-8.48285961151123,-0.4737958014011383,5.527617931365967,1
2631435,2024-02-06 10:32:12.503965,-8.327320098876953,-0.1459673941135406,5.702300071716309,1
2631511,2024-02-06 10:32:12.578908,-7.492195129394531,0.7202653288841248,4.9006757736206055,1
2631587,2024-02-06 10:32:12.653963,-8.679078102111816,0.7681235074996948,4.807352542877197,1
2631664,2024-02-06 10:32:12.728970,-8.954261779785156,1.1581674814224243,3.273498296737671,1
2631741,2024-02-06 10:32:12.818381,-9.406521797180176,3.6156840324401855,2.4264087677001958,1
2631817,2024-02-06 10:32:12.893682,-11.019341468811035,3.7688302993774414,0.2297191768884658,1
2631894,2024-02-06 10:32:12.968983,-9.901853561401367,3.0653152465820312,-0.0239290818572044,1
2631970,2024-02-06 10:32:13.043995,-9.980819702148438,4.546525478363037,0.5072965025901794,1
2632046,2024-02-06 10:32:13.134081,-8.214853286743164,4.556097030639648,0.7250511646270752,1
2632123,2024-02-06 10:32:13.193970,-9.155266761779783,4.623098373413086,1.4405306577682495,1
2632200,2024-02-06 10:32:13.268977,-7.633376598358154,4.551311016082764,0.708300769329071,1
2632276,2024-02-06 10:32:13.344015,-7.272047519683838,4.285698413848877,0.4331163763999939,1
2632353,2024-02-06 10:32:13.419017,-8.346463203430176,4.94853401184082,0.3709007501602173,1
2632429,2024-02-06 10:32:13.493983,-8.111958503723145,5.544368267059326,0.0550368875265121,1
2632505,2024-02-06 10:32:13.583397,-8.322534561157227,6.01577091217041,-0.2153617292642593,1
2632582,2024-02-06 10:32:13.658242,-7.540053367614746,6.338813304901123,-0.4642241597175598,1
2632659,2024-02-06 10:32:13.733282,-6.247882843017578,8.542681694030762,-1.2730270624160769,1
2632735,2024-02-06 10:32:13.809017,-6.513495922088623,7.666877746582031,-1.4812101125717163,1
2632812,2024-02-06 10:32:13.884010,-4.663777828216553,7.626198291778564,-1.5194966793060305,1
2632888,2024-02-06 10:32:13.958952,-3.986584901809693,7.401264667510986,-1.275420069694519,1
2632964,2024-02-06 10:32:14.034006,-3.2232472896575928,7.879846572875977,-0.540797233581543,1
2633041,2024-02-06 10:32:14.109004,-2.6321988105773926,9.246196746826172,-1.3543859720230105,1
2633118,2024-02-06 10:32:14.198952,-1.5936768054962158,9.94731903076172,-2.699200391769409,1
2633194,2024-02-06 10:32:14.258845,-1.557783126831055,9.432844161987305,-4.003335475921631,1
2633271,2024-02-06 10:32:14.348971,-1.4189945459365845,10.205753326416016,-3.591755151748657,1
2633347,2024-02-06 10:32:14.423429,-1.6582852602005005,9.746315002441406,-4.52259635925293,1
2633424,2024-02-06 10:32:14.498752,-1.8568966388702397,9.502238273620604,-3.4745025634765625,1
2633500,2024-02-06 10:32:14.573778,-2.692021608352661,9.71520709991455,-4.788208961486816,1
2633577,2024-02-06 10:32:14.648973,-2.2804415225982666,10.440258026123049,-5.135180950164795,1
2633654,2024-02-06 10:32:14.723946,-1.90954065322876,9.112194061279297,-6.11148738861084,1
2633730,2024-02-06 10:32:14.798226,-2.8906328678131104,9.406521797180176,-5.809980869293213,1
2633806,2024-02-06 10:32:14.873651,-5.046643257141113,9.870745658874512,-5.98944902420044,0
2633883,2024-02-06 10:32:14.948968,-3.3357138633728027,6.192846298217773,-4.111016273498535,0
2633959,2024-02-06 10:32:15.023950,-3.955476999282837,7.623805046081543,-4.441237449645996,0
2634036,2024-02-06 10:32:15.113975,-6.384278774261475,6.45845890045166,-2.768594741821289,0
2634113,2024-02-06 10:32:15.188990,-6.4321370124816895,6.982505798339844,-2.955241441726685,0
2634189,2024-02-06 10:32:15.263228,-5.068179130554199,7.272047519683838,-1.3998512029647827,0
2634265,2024-02-06 10:32:15.338971,-3.1706032752990723,7.82959508895874,-0.4379021823406219,0
2634342,2024-02-06 10:32:15.413940,-1.897576093673706,7.57834005355835,1.2658483982086182,0
2634418,2024-02-06 10:32:15.488965,-1.3232781887054443,7.760200977325439,2.232583284378052,0
2634495,2024-02-06 10:32:15.563944,-2.0267932415008545,7.267261981964111,2.711164951324463,0
2634572,2024-02-06 10:32:15.638952,-2.055508136749268,9.545310020446776,0.2727915346622467,0
2634648,2024-02-06 10:32:15.713964,2.1464385986328125,14.04637050628662,2.0961875915527344,0
2634724,2024-02-06 10:32:15.788266,3.5534684658050537,10.662798881530762,0.7561589479446411,0
2634801,2024-02-06 10:32:15.878229,1.720500946044922,11.809000968933104,2.572376251220703,0
2634877,2024-02-06 10:32:15.953930,2.0267932415008545,11.395028114318848,2.6393775939941406,0
2634954,2024-02-06 10:32:16.028897,3.180174827575684,11.536210060119627,0.1914326548576355,0
2635031,2024-02-06 10:32:16.103917,2.2804415225982666,10.445043563842772,2.663306713104248,0
2635107,2024-02-06 10:32:16.178831,2.464695453643799,9.380199432373049,1.0050214529037476,0
2635183,2024-02-06 10:32:16.253954,2.388122320175171,8.997334480285645,0.5479759573936462,0
2635260,2024-02-06 10:32:16.328936,1.5769264698028564,6.803037643432617,0.2153617292642593,0
2635336,2024-02-06 10:32:16.403997,1.131845474243164,5.233290195465088,-0.3661149442195892,0
2635413,2024-02-06 10:32:16.478933,1.3017419576644895,5.745372295379639,-0.2105759084224701,0
2635490,2024-02-06 10:32:16.553361,2.3211207389831543,8.937511444091797,0.9978426694869996,0
2635566,2024-02-06 10:32:16.643565,2.7781662940979004,10.579046249389648,1.5027462244033811,0
2635642,2024-02-06 10:32:16.718638,2.110544919967652,9.150480270385742,1.0576653480529783,0
2635719,2024-02-06 10:32:16.793862,1.8162171840667725,8.985369682312012,1.6487137079238892,0
2635795,2024-02-06 10:32:16.868396,1.6606782674789429,8.86333179473877,1.304134964942932,0
2635872,2024-02-06 10:32:16.943903,1.3017419576644895,9.547703742980955,1.2227760553359983,0
2635949,2024-02-06 10:32:17.018929,1.672642707824707,9.23423194885254,2.218225717544556,0
2636025,2024-02-06 10:32:17.093972,1.4572809934616089,9.105015754699709,2.206261157989502,0
2636101,2024-02-06 10:32:17.168868,1.1916682720184326,10.189002990722656,2.5819478034973145,0
2636178,2024-02-06 10:32:17.244371,0.521653950214386,9.14808750152588,0.983485221862793,0
2636254,2024-02-06 10:32:17.319380,0.1387886703014373,9.712814331054688,2.1177237033843994,0
2636331,2024-02-06 10:32:17.393959,-0.0382865294814109,10.059785842895508,1.6534994840621948,0
2636408,2024-02-06 10:32:17.483967,-1.2036327123641968,9.31319808959961,1.821003079414368,0
2636484,2024-02-06 10:32:17.559003,-1.1438100337982178,9.46155834197998,2.3498356342315674,0
2636561,2024-02-06 10:32:17.633928,-0.8877689242362976,8.621647834777832,2.0746512413024902,0
2636637,2024-02-06 10:32:17.708904,-1.012200117111206,9.033227920532228,3.02942156791687,0
2636713,2024-02-06 10:32:17.783781,-0.844696581363678,8.805901527404785,3.4098939895629883,0
2636790,2024-02-06 10:32:17.858948,-0.5168681740760803,8.442179679870605,3.084458589553833,0
2636867,2024-02-06 10:32:17.948150,-0.825553297996521,8.906403541564941,3.070101022720337,0
2636943,2024-02-06 10:32:18.008183,-0.9715206623077391,9.016477584838867,3.917190551757813,0
2637020,2024-02-06 10:32:18.083970,-0.2823631465435028,9.851602554321287,4.690099716186523,0
2637096,2024-02-06 10:32:18.173950,-0.4331163763999939,11.435708045959473,2.8906328678131104,0
2637172,2024-02-06 10:32:18.248951,0.3661149442195892,8.638398170471191,1.3328498601913452,0
2637249,2024-02-06 10:32:18.323936,0.9619490504264832,8.66472053527832,0.5599405169487,0
2637326,2024-02-06 10:32:18.398967,0.7154794931411743,10.586225509643556,1.998078227043152,0
2637402,2024-02-06 10:32:18.474005,0.1316099464893341,8.84658145904541,2.5604116916656494,0
2637479,2024-02-06 10:32:18.548838,0.3589362204074859,8.951869010925293,2.347442865371704,0
2637555,2024-02-06 10:32:18.623944,0.1603248417377472,8.973404884338379,2.730308055877685,0
2637631,2024-02-06 10:32:18.698913,-0.2177546322345733,8.796330451965332,3.0126712322235107,0
2637708,2024-02-06 10:32:18.773948,-0.1914326548576355,8.994941711425781,3.4170727729797363,0
2637785,2024-02-06 10:32:18.848941,-0.3780794739723205,9.21748161315918,3.661149263381958,0
2637861,2024-02-06 10:32:18.938928,-0.667621374130249,11.777894020080566,3.744901180267334,0
2637938,2024-02-06 10:32:19.013917,-0.5240468978881836,10.69629955291748,1.3615647554397583,0
2638014,2024-02-06 10:32:19.088931,-1.1366313695907593,7.8032732009887695,1.7970739603042605,0
2638090,2024-02-06 10:32:19.163878,-1.2873845100402832,9.66256332397461,0.8758043646812439,0
2638167,2024-02-06 10:32:19.238899,-0.7154794931411743,10.18182373046875,2.294798851013184,0
2638244,2024-02-06 10:32:19.313951,-0.964341938495636,9.047585487365724,2.311549186706543,0
2638320,2024-02-06 10:32:19.388895,-1.263455510139465,8.87051010131836,2.768594741821289,0
2638397,2024-02-06 10:32:19.463744,-1.1055235862731934,8.822651863098145,3.0868513584136963,0
2638473,2024-02-06 10:32:19.538902,-0.95477032661438,8.798723220825195,3.113173484802246,0
2638549,2024-02-06 10:32:19.613925,-0.983485221862793,8.025814056396484,4.405344009399414,0
2638626,2024-02-06 10:32:19.703904,-1.0457007884979248,9.042799949645996,3.4553592205047607,0
2638703,2024-02-06 10:32:19.778938,-0.7394086122512817,9.492666244506836,3.843010425567627,0
2638779,2024-02-06 10:32:19.853912,-0.4737958014011383,10.887731552124023,3.821474313735962,0
2638856,2024-02-06 10:32:19.928915,-0.466617077589035,9.064335823059082,2.3354783058166504,0
2638932,2024-02-06 10:32:20.003919,0.1220383122563362,8.992548942565918,1.8545037508010864,0
2639008,2024-02-06 10:32:20.078883,0.2656128108501434,9.600347518920898,1.622391700744629,0
2639085,2024-02-06 10:32:20.153910,0.619763195514679,9.320377349853516,1.8257888555526731,0
2639162,2024-02-06 10:32:20.228912,0.6771929860115051,9.612311363220217,1.6654640436172483,0
2639238,2024-02-06 10:32:20.303909,0.5910483002662659,9.633848190307615,2.395301103591919,0
2639315,2024-02-06 10:32:20.378471,1.079201579093933,9.48788070678711,2.591519355773926,0
2639391,2024-02-06 10:32:20.468900,1.217990159988403,9.337127685546877,2.3282995223999023,0
2639467,2024-02-06 10:32:20.543917,1.201239824295044,9.138516426086426,2.1464385986328125,0
2639544,2024-02-06 10:32:20.618849,1.1605603694915771,8.968619346618652,2.529303789138794,0
2639621,2024-02-06 10:32:20.693902,1.237133502960205,9.344305992126465,2.782952070236206,0
2639698,2024-02-06 10:32:20.768166,0.8351249098777771,9.301233291625977,3.342892646789551,0
2639774,2024-02-06 10:32:20.843169,0.7418015003204346,9.215088844299316,3.048564910888672,0
2639850,2024-02-06 10:32:20.918877,0.0406794361770153,9.492666244506836,2.8284173011779785,0
2639927,2024-02-06 10:32:20.993779,-0.181861013174057,9.53334617614746,2.5532329082489014,0
2640003,2024-02-06 10:32:21.068776,-0.9356270432472228,8.904010772705078,2.0220072269439697,0
2640080,2024-02-06 10:32:21.143920,-1.4070299863815308,9.53334617614746,1.8042527437210083,0
2640157,2024-02-06 10:32:21.233755,-1.1294525861740112,9.6697416305542,2.4264087677001958,0
2640233,2024-02-06 10:32:21.308548,-0.9882710576057434,9.258161544799805,2.390515089035034,0
2640309,2024-02-06 10:32:21.383929,-1.012200117111206,9.64581298828125,1.5099250078201294,0
2640386,2024-02-06 10:32:21.458477,-0.95477032661438,9.418486595153809,3.366821765899658,0
2640462,2024-02-06 10:32:21.533879,-1.0145930051803589,8.999727249145508,3.0748867988586426,0
2640539,2024-02-06 10:32:21.608928,-1.072022795677185,9.004512786865234,2.8978116512298584,0
2640616,2024-02-06 10:32:21.683764,-0.5814766883850098,9.004512786865234,3.448180675506592,0
2640692,2024-02-06 10:32:21.758843,-0.3278284072875976,9.102622032165527,4.046407699584961,0
2640768,2024-02-06 10:32:21.833703,-0.7561589479446411,11.134201049804688,3.68029260635376,0
2640845,2024-02-06 10:32:21.908898,0.8303391337394714,7.848738670349121,1.9526129961013796,0
2640921,2024-02-06 10:32:21.998196,0.2249333560466766,8.961441040039062,1.103130578994751,0
2640998,2024-02-06 10:32:22.073906,0.8351249098777771,9.830066680908203,1.995685338973999,0
2641075,2024-02-06 10:32:22.148894,0.3852581977844238,9.248589515686035,2.5269110202789307,0
2641151,2024-02-06 10:32:22.223874,0.6915504336357117,8.676684379577637,2.522125244140625,0
2641227,2024-02-06 10:32:22.298879,0.7154794931411743,8.722149848937988,1.8856115341186523,0
2641304,2024-02-06 10:32:22.373739,0.44268798828125,8.875295639038086,1.8951832056045528,0
2641380,2024-02-06 10:32:22.448918,1.0050214529037476,9.08108615875244,1.4524952173233032,0
2641457,2024-02-06 10:32:22.523857,1.2132043838500977,8.363213539123535,0.1411815732717514,0
2641534,2024-02-06 10:32:22.598873,0.6173703074455261,8.662327766418457,0.6580497026443481,0
2641610,2024-02-06 10:32:22.673869,0.8710185289382935,8.50678825378418,1.0959519147872925,0
2641686,2024-02-06 10:32:22.763904,1.170132040977478,7.487409591674805,0.3326142132282257,0
2641763,2024-02-06 10:32:22.838236,1.2706341743469238,7.530481815338135,1.3902796506881714,0
2641839,2024-02-06 10:32:22.913892,1.148595929145813,8.265104293823242,0.5790837407112122,0
2641916,2024-02-06 10:32:22.988911,-1.1892752647399902,10.133965492248535,1.464459776878357,0
2641993,2024-02-06 10:32:23.063897,-4.180410385131836,10.995412826538086,0.9595561623573304,0
2642069,2024-02-06 10:32:23.138872,-1.524282455444336,7.288797855377197,1.8784328699111936,0
2642145,2024-02-06 10:32:23.213926,1.3759222030639648,18.320104598999023,-12.67284107208252,0
2642222,2024-02-06 10:32:23.288688,0.339792937040329,9.21030330657959,-2.218225717544556,0
2642298,2024-02-06 10:32:23.363859,1.4812101125717163,5.010749340057373,-2.464695453643799,1
2642375,2024-02-06 10:32:23.438887,3.3404996395111084,5.273969650268555,-2.950455665588379,1
2642452,2024-02-06 10:32:23.528741,-0.5790837407112122,5.154324054718018,-7.980348587036133,1
2642528,2024-02-06 10:32:23.603970,12.653697967529297,-0.1770751923322677,-11.009770393371582,1
2642604,2024-02-06 10:32:23.678881,3.3835721015930176,9.13133716583252,-5.726229190826416,1
2642681,2024-02-06 10:32:23.753865,18.69100570678711,0.9954497814178468,-2.713557720184326,1
2642757,2024-02-06 10:32:23.828853,4.553704261779785,4.874353885650635,-6.037307262420654,1
2642834,2024-02-06 10:32:23.903862,14.850387573242188,9.14808750152588,0.3756865561008453,1
2642911,2024-02-06 10:32:23.978837,10.090893745422363,1.1222739219665527,-0.3230426013469696,1
2642987,2024-02-06 10:32:24.053821,7.877453327178955,1.6080342531204224,-1.5960696935653689,1
2643064,2024-02-06 10:32:24.128863,9.006906509399414,1.4979604482650757,-3.1849606037139893,1
2643140,2024-02-06 10:32:24.203715,8.473287582397461,2.390515089035034,-3.1993181705474854,1
2643216,2024-02-06 10:32:24.293854,8.930333137512207,2.945669889450073,-3.5726118087768555,1
2643293,2024-02-06 10:32:24.368798,8.607290267944336,2.814059972763061,-4.0224785804748535,1
2643370,2024-02-06 10:32:24.443871,8.442179679870605,2.579555034637451,-4.472345352172852,1
2643446,2024-02-06 10:32:24.518818,8.971012115478516,2.340264081954956,-5.766908645629883,1
2643523,2024-02-06 10:32:24.593858,7.748236179351807,2.383336544036865,-5.463009357452393,1
2643599,2024-02-06 10:32:24.668809,8.470894813537598,2.110544919967652,-5.345756530761719,1
2643675,2024-02-06 10:32:24.743893,8.267497062683105,2.1655819416046143,-5.496510028839111,1
2643752,2024-02-06 10:32:24.818832,8.444572448730469,1.983720779418945,-5.252433300018311,1
2643829,2024-02-06 10:32:24.893904,8.176567077636719,1.8568966388702397,-5.185431957244873,1
2643905,2024-02-06 10:32:24.983720,8.298604965209961,1.7875022888183594,-4.886318206787109,1
2643982,2024-02-06 10:32:25.043886,8.33449935913086,2.483838558197021,-5.319434642791748,1
2644058,2024-02-06 10:32:25.133898,8.882474899291992,2.9672060012817383,-5.788444519042969,1
2644134,2024-02-06 10:32:25.208838,9.507023811340332,2.567590475082397,-5.924840450286865,1
2644211,2024-02-06 10:32:25.283140,7.678842067718506,5.458223342895508,-3.5391111373901367,1
2644288,2024-02-06 10:32:25.358133,6.922683238983154,5.04425048828125,-4.831281661987305,1
2644364,2024-02-06 10:32:25.433853,6.374707221984863,4.434058666229248,-5.309863090515137,1
2644441,2024-02-06 10:32:25.508853,5.417543888092041,4.764279842376709,-5.297898292541504,1
2644517,2024-02-06 10:32:25.583630,6.657070159912109,5.025106906890869,-6.252668857574463,1
2644593,2024-02-06 10:32:25.658902,7.456301689147949,5.419936656951904,-7.43955135345459,1
2644670,2024-02-06 10:32:25.748315,7.176331520080566,3.7688302993774414,-7.245725631713867,1
2644747,2024-02-06 10:32:25.808163,5.592226028442383,2.641770601272583,-6.860467433929443,1
2644823,2024-02-06 10:32:25.898848,5.836302757263184,-0.2177546322345733,-6.054057598114014,1
2644900,2024-02-06 10:32:25.973842,4.587204933166504,0.260826975107193,-6.422565460205078,1
2644976,2024-02-06 10:32:26.048904,4.821709632873535,0.9978426694869996,-6.645105838775635,1
2645052,2024-02-06 10:32:26.123838,5.656834602355957,-1.0576653480529783,-6.752786636352539,1
2645129,2024-02-06 10:32:26.198853,4.446023464202881,0.4331163763999939,-9.66256332397461,1
2645206,2024-02-06 10:32:26.273854,5.733407974243164,0.9595561623573304,-12.088972091674805,1
2645282,2024-02-06 10:32:26.363821,4.259376525878906,1.6247845888137815,-12.077007293701172,1
2645359,2024-02-06 10:32:26.423850,0.7729093432426453,2.9887421131134038,-8.600111961364746,1
2645435,2024-02-06 10:32:26.513868,3.54150390625,6.396243095397949,-8.162209510803223,1
2645511,2024-02-06 10:32:26.573871,4.137338161468506,7.279226303100586,-8.104779243469238,1
2645588,2024-02-06 10:32:26.663653,1.239526391029358,9.136122703552246,-5.4773664474487305,1
2645665,2024-02-06 10:32:26.738175,3.548682689666748,6.937040328979492,-5.800409317016602,1
2645741,2024-02-06 10:32:26.813865,1.6008554697036743,7.633376598358154,-3.6491849422454834,1
2645818,2024-02-06 10:32:26.888850,2.6944146156311035,7.946847915649414,-2.715950727462769,1
2645894,2024-02-06 10:32:26.963839,1.9693633317947388,7.537660598754883,-2.10097336769104,1
2645971,2024-02-06 10:32:27.038827,0.8375178575515747,7.1500091552734375,-1.1079164743423462,1
2646047,2024-02-06 10:32:27.113825,-0.5072965025901794,8.090422630310059,-1.1725249290466309,1
2646124,2024-02-06 10:32:27.188846,0.0287148971110582,9.901853561401367,-0.7753022313117981,1
2646201,2024-02-06 10:32:27.263842,-1.438137769699097,13.713756561279297,-2.7279152870178223,1
2646277,2024-02-06 10:32:27.398841,-2.993528127670288,11.572103500366213,-2.8499536514282227,1
2646353,2024-02-06 10:32:27.428781,-2.072258472442627,13.213638305664062,-1.2706341743469238,1
2646430,2024-02-06 10:32:27.503826,-0.7561589479446411,12.634554862976074,0.1794681102037429,1
2646506,2024-02-06 10:32:27.578893,-0.9212695956230164,12.088972091674805,0.5862624645233154,1
2646583,2024-02-06 10:32:27.653759,-1.6295703649520874,9.710420608520508,-2.4000868797302246,1
2646660,2024-02-06 10:32:27.728652,-1.761180400848389,8.05692195892334,-2.079437017440796,1
2646736,2024-02-06 10:32:27.803832,-1.5338541269302368,7.592697143554687,-0.8159816861152649,1
2646812,2024-02-06 10:32:27.878844,-1.141417145729065,6.228739738464356,-0.8781972527503967,1
2646889,2024-02-06 10:32:27.968814,-0.2297191768884658,6.252668857574463,-0.1986113786697387,1
2646965,2024-02-06 10:32:28.028091,0.2345049977302551,8.12631607055664,0.7394086122512817,1
2647041,2024-02-06 10:32:28.103030,-0.4857603311538696,10.028677940368652,1.7157150506973269,1
2647118,2024-02-06 10:32:28.193829,-0.9260554313659668,9.294054985046388,1.0480937957763672,1
2647195,2024-02-06 10:32:28.268791,-0.4187589287757873,10.71065616607666,1.4453164339065552,1
2647271,2024-02-06 10:32:28.343407,1.591283917427063,9.456772804260254,-0.1124666780233383,1
2647348,2024-02-06 10:32:28.418808,0.6030128598213196,9.514202117919922,0.9739136099815368,1
2647424,2024-02-06 10:32:28.493741,1.148595929145813,8.530716896057129,1.682214379310608,1
2647500,2024-02-06 10:32:28.568583,0.8111958503723145,8.930333137512207,1.8162171840667725,1
2647577,2024-02-06 10:32:28.643855,0.679585874080658,9.246196746826172,2.251726627349853,1
2647654,2024-02-06 10:32:28.718821,1.1868823766708374,9.136122703552246,2.256512403488159,1
2647730,2024-02-06 10:32:28.808660,0.923662543296814,9.25576877593994,1.9597917795181277,1
2647807,2024-02-06 10:32:28.868479,0.679585874080658,9.777422904968262,2.158403158187866,1
2647883,2024-02-06 10:32:28.958809,0.5431901216506958,9.614705085754396,2.3426570892333984,1
2647959,2024-02-06 10:32:29.033271,1.0026284456253052,9.066728591918944,3.302213191986084,0
2648036,2024-02-06 10:32:29.108833,0.9284483194351196,9.112194061279297,2.373764753341675,0
2648113,2024-02-06 10:32:29.183883,0.284756064414978,9.36823558807373,3.187353610992432,0
2648189,2024-02-06 10:32:29.258823,0.5192610621452332,9.631455421447754,3.09881591796875,0
2648266,2024-02-06 10:32:29.333648,-0.6245490312576294,9.47830867767334,2.9695990085601807,0
2648342,2024-02-06 10:32:29.408608,-0.9763064980506896,8.389535903930664,1.7683590650558472,0
2648418,2024-02-06 10:32:29.498833,-1.6032484769821167,9.600347518920898,1.072022795677185,0
2648495,2024-02-06 10:32:29.558861,-1.7444299459457395,10.047821044921877,2.8284173011779785,0
2648572,2024-02-06 10:32:29.633831,-1.32806396484375,8.920761108398438,2.692021608352661,0
2648648,2024-02-06 10:32:29.723792,-1.3208853006362915,8.94947624206543,2.799702405929565,0
2648725,2024-02-06 10:32:29.798684,-1.541032791137695,9.05237102508545,2.936098337173462,0
2648801,2024-02-06 10:32:29.873478,-1.246705174446106,8.612075805664062,2.8762755393981934,0
2648877,2024-02-06 10:32:29.948791,-1.2155972719192505,8.937511444091797,2.9528486728668213,0
2648954,2024-02-06 10:32:30.023720,-1.2347406148910522,9.334734916687012,3.5319323539733887,0
2649031,2024-02-06 10:32:30.098811,-0.8590540289878845,9.727170944213867,3.68029260635376,0
2649108,2024-02-06 10:32:30.175298,-0.7035149931907654,10.586225509643556,3.196925163269043,0
2649184,2024-02-06 10:32:30.249231,0.0789659693837165,8.94229793548584,2.491017341613769,0
2649260,2024-02-06 10:32:30.338775,0.3350071310997009,8.458930015563965,1.689393162727356,0
2649337,2024-02-06 10:32:30.414174,0.1698964685201645,9.909032821655272,1.5649619102478027,0
2649414,2024-02-06 10:32:30.488388,0.2584340870380401,9.684099197387695,2.8547394275665283,0
2649490,2024-02-06 10:32:30.563807,0.184253916144371,8.810688018798828,2.625020265579224,0
2649567,2024-02-06 10:32:30.638595,0.2775773406028747,9.253376007080078,2.129688262939453,0
2649643,2024-02-06 10:32:30.713791,0.1746822893619537,9.32277011871338,3.034207344055176,0
2649719,2024-02-06 10:32:30.788093,0.0622156113386154,9.186373710632324,3.153852939605713,0
2649796,2024-02-06 10:32:30.863043,0.0789659693837165,8.779580116271973,3.146674156188965,0
2649873,2024-02-06 10:32:30.938780,0.102895051240921,9.600347518920898,3.3955366611480717,0
2649949,2024-02-06 10:32:31.013798,0.0047858161851763,9.889888763427734,3.658756494522095,0
2650026,2024-02-06 10:32:31.103047,-0.0406794361770153,9.564454078674316,2.696807384490967,0
2650102,2024-02-06 10:32:31.178647,-0.2464695274829864,8.95665454864502,2.8547394275665283,0
2650178,2024-02-06 10:32:31.253542,-0.5742979645729065,9.140909194946287,3.09881591796875,0
2650255,2024-02-06 10:32:31.328801,-1.0457007884979248,8.963833808898926,2.6609137058258057,0
2650332,2024-02-06 10:32:31.403765,-1.464459776878357,8.614469528198242,1.945434331893921,0
2650408,2024-02-06 10:32:31.478780,-2.002864122390747,9.37541389465332,2.2660839557647705,0
2650485,2024-02-06 10:32:31.553794,-1.7252867221832275,9.026049613952637,2.5269110202789307,0
2650561,2024-02-06 10:32:31.627990,-1.6008554697036743,9.265339851379396,2.6896286010742188,0
2650637,2024-02-06 10:32:31.703036,-1.584105134010315,9.466344833374023,2.950455665588379,0
2650714,2024-02-06 10:32:31.778031,-1.263455510139465,8.851366996765137,3.0054924488067627,0
2650791,2024-02-06 10:32:31.868100,-1.1653462648391724,9.016477584838867,2.7518444061279297,0
2650867,2024-02-06 10:32:31.958781,-1.2036327123641968,8.951869010925293,3.2830698490142822,0
2650944,2024-02-06 10:32:32.018086,-1.2873845100402832,9.37541389465332,3.4051082134246826,0
2651020,2024-02-06 10:32:32.093831,-0.8040171265602112,10.91883945465088,3.421858549118042,0
2651096,2024-02-06 10:32:32.168417,-0.3038993179798126,9.06194305419922,1.9621846675872805,0
2651173,2024-02-06 10:32:32.243878,-0.4498667120933532,8.571396827697754,2.242154836654663,0
2651250,2024-02-06 10:32:32.318435,-0.1507532149553299,8.75086498260498,2.311549186706543,0
2651326,2024-02-06 10:32:32.393851,0.3804723918437958,9.425664901733398,2.1057591438293457,0
2651403,2024-02-06 10:32:32.468396,0.4690099954605102,9.332341194152832,1.9119335412979128,0
2651479,2024-02-06 10:32:32.543802,0.4187589287757873,9.57402515411377,2.2014753818511963,0
2651555,2024-02-06 10:32:32.633821,0.6365135312080383,9.916211128234863,2.735093832015991,0
2651632,2024-02-06 10:32:32.708605,0.7944455146789551,9.191160202026367,2.5532329082489014,0
2651708,2024-02-06 10:32:32.783621,0.679585874080658,9.423272132873535,2.5101606845855717,0
2651785,2024-02-06 10:32:32.858804,0.5934411883354187,9.741528511047363,2.390515089035034,0
2651862,2024-02-06 10:32:32.933753,0.588655412197113,9.320377349853516,2.9193477630615234,0
2651938,2024-02-06 10:32:33.008800,0.5623334050178528,9.128944396972656,2.971991777420044,0
2652014,2024-02-06 10:32:33.083480,0.7537660598754883,8.94947624206543,3.0677082538604736,0
2652091,2024-02-06 10:32:33.158767,0.6508709788322449,9.133729934692385,3.015064239501953,0
2652167,2024-02-06 10:32:33.233640,0.6077986359596252,9.100229263305664,3.441001892089844,0
2652244,2024-02-06 10:32:33.308833,0.5862624645233154,9.28926944732666,3.2352118492126465,0
2652321,2024-02-06 10:32:33.398791,0.2584340870380401,8.549860954284668,3.436216115951538,0
2652397,2024-02-06 10:32:33.473768,0.208183005452156,9.277304649353027,3.577397584915161,0
2652473,2024-02-06 10:32:33.548871,-0.2991135120391845,9.420879364013672,3.3213565349578857,0
2652550,2024-02-06 10:32:33.623815,-0.2895418703556061,8.626433372497559,2.845167636871338,0
2652626,2024-02-06 10:32:33.698779,-1.0241646766662598,8.312962532043457,2.696807384490967,0
2652703,2024-02-06 10:32:33.773620,-1.2897775173187256,8.966226577758789,2.3426570892333984,0
2652780,2024-02-06 10:32:33.848781,-1.0768086910247805,9.47113037109375,2.8260245323181152,0
