timestamp,timestamp_local,ax,ay,az,fall_state
1632076,2024-02-06 10:15:33.157874,0.6149773597717285,9.83485221862793,2.4623024463653564,0
1632153,2024-02-06 10:15:33.233214,0.8829830884933472,10.327791213989258,0.904519259929657,0
1632229,2024-02-06 10:15:33.308071,1.4285660982131958,9.128944396972656,2.0890088081359863,0
1632305,2024-02-06 10:15:33.383165,1.0839873552322388,10.500081062316895,3.0940301418304443,0
1632381,2024-02-06 10:15:33.458131,-3.2232472896575928,3.716186285018921,4.417308330535889,0
1632458,2024-02-06 10:15:33.533164,0.6101915836334229,9.39934253692627,2.0052568912506104,0
1632535,2024-02-06 10:15:33.623057,0.7489802241325378,7.587911605834961,1.8832186460494995,0
1632611,2024-02-06 10:15:33.698160,-2.4981961250305176,9.89706802368164,5.685549736022949,0
1632687,2024-02-06 10:15:33.772991,-1.074415683746338,8.262711524963379,5.458223342895508,0
1632764,2024-02-06 10:15:33.848165,-0.39722275733947754,6.738429069519043,4.338342189788818,0
1632840,2024-02-06 10:15:33.922994,0.1411815732717514,9.016477584838867,3.977013349533081,0
1632916,2024-02-06 10:15:33.997952,-0.09810923039913177,9.282090187072754,1.0863802433013916,0
1632993,2024-02-06 10:15:34.072400,-0.20339718461036682,10.581439971923828,1.177310824394226,0
1633070,2024-02-06 10:15:34.147910,-1.4907817840576172,9.066728591918945,2.1320810317993164,0
1633146,2024-02-06 10:15:34.222910,-0.009571632370352745,9.777422904968262,2.3498356342315674,0
1633223,2024-02-06 10:15:34.298119,-0.47858160734176636,9.37541389465332,2.6800570487976074,0
1633299,2024-02-06 10:15:34.387291,-0.5599405169487,10.921232223510742,1.8712540864944458,0
1633375,2024-02-06 10:15:34.462904,-0.11007377505302429,10.792015075683594,0.7800880670547485,0
1633452,2024-02-06 10:15:34.538210,0.06700142472982407,9.186373710632324,0.5049036145210266,0
1633529,2024-02-06 10:15:34.613118,0.8710185289382935,8.674291610717773,0.3302213251590729,0
1633605,2024-02-06 10:15:34.688112,0.7011220455169678,10.066964149475098,1.1438100337982178,0
1633682,2024-02-06 10:15:34.763095,0.569512128829956,9.66016960144043,1.4285660982131958,0
1633758,2024-02-06 10:15:34.838110,0.8016242384910583,8.473287582397461,0.9786993861198425,0
1633834,2024-02-06 10:15:34.913121,0.6987291574478149,9.82528018951416,1.3160994052886963,0
1633911,2024-02-06 10:15:34.988148,0.059822700917720795,9.246196746826172,1.3472073078155518,0
1633988,2024-02-06 10:15:35.063115,0.7824809551239014,9.514202117919922,1.2586696147918701,0
1634064,2024-02-06 10:15:35.153101,0.3709007501602173,10.612546920776367,1.2802058458328247,0
1634141,2024-02-06 10:15:35.228128,-1.0241646766662598,10.476151466369629,1.0409150123596191,0
1634217,2024-02-06 10:15:35.303096,-1.7731448411941528,10.361291885375977,0.3206496834754944,0
1634293,2024-02-06 10:15:35.378120,-1.4812101125717163,8.22921085357666,-0.4522596299648285,0
1634370,2024-02-06 10:15:35.452673,-1.5266753435134888,9.136122703552246,0.3350071310997009,0
1634447,2024-02-06 10:15:35.527763,-1.8233959674835205,9.877924919128418,1.3759222030639648,0
1634523,2024-02-06 10:15:35.647343,-1.928683876991272,8.980584144592285,1.1749178171157837,0
1634600,2024-02-06 10:15:35.677371,-2.115330696105957,9.195945739746094,1.3831008672714233,0
1634676,2024-02-06 10:15:35.752410,-1.8927903175354004,9.081086158752441,-0.16271774470806122,0
1634752,2024-02-06 10:15:35.828098,-0.5958341360092163,11.31127643585205,2.979170560836792,0
1634829,2024-02-06 10:15:35.933131,-1.043307900428772,9.143301963806152,2.373764753341675,0
1634906,2024-02-06 10:15:35.992692,-2.065079689025879,9.674527168273926,2.172760486602783,0
1634982,2024-02-06 10:15:36.067677,-0.540797233581543,9.083478927612305,2.3282995223999023,0
1635059,2024-02-06 10:15:36.158108,-1.103130578994751,7.831988334655762,2.9624202251434326,0
1635135,2024-02-06 10:15:36.218072,-2.5125534534454346,5.848267555236816,1.366350531578064,0
1635211,2024-02-06 10:15:36.293105,0.3517574965953827,11.646284103393555,3.682685613632202,0
1635288,2024-02-06 10:15:36.368080,3.730543613433838,14.919781684875488,0.05264397710561752,0
1635365,2024-02-06 10:15:36.443051,2.493410348892212,8.372785568237305,-2.340264081954956,0
1635441,2024-02-06 10:15:36.518098,1.0457007884979248,8.880082130432129,-1.6678569316864014,0
1635518,2024-02-06 10:15:36.593113,1.5721405744552612,8.992548942565918,-1.306527853012085,0
1635594,2024-02-06 10:15:36.683096,1.9693633317947388,9.679313659667969,-1.3926725387573242,0
1635670,2024-02-06 10:15:36.758107,1.742037057876587,9.140909194946289,-1.0648441314697266,0
1635747,2024-02-06 10:15:36.833105,1.6846072673797607,9.547703742980957,-1.6870001554489136,0
1635824,2024-02-06 10:15:36.908103,1.3615647554397583,9.65299129486084,-1.9119335412979126,0
1635900,2024-02-06 10:15:36.983122,1.5051392316818237,9.502238273620605,-1.6152129173278809,0
1635977,2024-02-06 10:15:37.058094,1.3831008672714233,9.569239616394043,-2.038757801055908,0
1636053,2024-02-06 10:15:37.133144,1.3208853006362915,9.509416580200195,-1.9095406532287598,0
1636129,2024-02-06 10:15:37.208082,1.462066888809204,9.396949768066406,-1.9334697723388672,0
1636206,2024-02-06 10:15:37.282355,0.7322298884391785,10.526402473449707,-2.7877378463745117,0
1636283,2024-02-06 10:15:37.357300,-0.8303391337394714,12.534052848815918,0.1698964685201645,0
1636359,2024-02-06 10:15:37.447337,-0.44268798828125,7.798487663269043,3.6491849422454834,0
1636436,2024-02-06 10:15:37.522901,-2.663306713104248,10.052606582641602,1.6558923721313477,0
1636512,2024-02-06 10:15:37.598109,-0.7992312908172607,8.279461860656738,2.10097336769104,0
1636588,2024-02-06 10:15:37.672889,-1.5553902387619019,9.12415885925293,2.0076498985290527,0
1636665,2024-02-06 10:15:37.747917,-1.1007376909255981,9.863567352294922,2.292405843734741,0
1636742,2024-02-06 10:15:37.822866,-1.1820966005325317,9.39934253692627,2.093794584274292,0
1636818,2024-02-06 10:15:37.898093,-1.0935590267181396,9.36584186553955,2.261298179626465,0
1636895,2024-02-06 10:15:37.973041,-1.4716384410858154,8.94947624206543,1.9143264293670654,0
1636971,2024-02-06 10:15:38.048060,-1.0576653480529785,9.502238273620605,2.4431591033935547,0
1637047,2024-02-06 10:15:38.122999,-0.983485221862793,9.224660873413086,2.931312322616577,0
1637124,2024-02-06 10:15:38.213090,-2.0770442485809326,8.695828437805176,2.7590229511260986,0
1637201,2024-02-06 10:15:38.288112,-2.0818300247192383,8.877689361572266,2.739879846572876,0
1637277,2024-02-06 10:15:38.363059,-2.010042905807495,8.676684379577637,2.6106626987457275,0
1637354,2024-02-06 10:15:38.438093,-2.3976938724517822,8.300997734069824,3.350071430206299,0
1637430,2024-02-06 10:15:38.513080,-1.6702498197555542,8.93272590637207,1.9597917795181274,0
1637506,2024-02-06 10:15:38.588160,2.577162027359009,12.706341743469238,-1.0098072290420532,0
1637583,2024-02-06 10:15:38.663109,2.9767775535583496,11.387849807739258,-2.1392598152160645,0
1637660,2024-02-06 10:15:38.738186,1.9238981008529663,9.6697416305542,-0.16511066257953644,0
1637736,2024-02-06 10:15:38.813075,1.5266753435134888,8.210067749023438,-1.6630711555480957,0
1637813,2024-02-06 10:15:38.903090,3.4745025634765625,8.025814056396484,-2.220618724822998,0
1637889,2024-02-06 10:15:38.962644,1.208418607711792,10.066964149475098,-1.0313433408737183,0
1637965,2024-02-06 10:15:39.052911,1.651106595993042,9.286876678466797,-0.5503688454627991,0
1638042,2024-02-06 10:15:39.127239,1.7157150506973267,10.002355575561523,-0.42833054065704346,0
1638119,2024-02-06 10:15:39.202762,1.2778129577636719,9.74870777130127,-0.3421858549118042,0
1638195,2024-02-06 10:15:39.277475,1.5410327911376953,9.655384063720703,0.08614469319581985,0
1638272,2024-02-06 10:15:39.352674,1.6941789388656616,9.82528018951416,0.39961564540863037,0
1638348,2024-02-06 10:15:39.427447,1.2179901599884033,9.633848190307617,0.9930568337440491,0
1638424,2024-02-06 10:15:39.503054,0.2919347882270813,10.129179954528809,1.170132040977478,0
1638501,2024-02-06 10:15:39.577522,1.0098072290420532,9.648205757141113,0.36850783228874207,0
1638578,2024-02-06 10:15:39.653016,0.06221561133861542,8.423036575317383,1.0983448028564453,0
1638654,2024-02-06 10:15:39.742402,-0.7154794931411743,9.75588607788086,1.3113136291503906,0
1638731,2024-02-06 10:15:39.818064,-0.41875892877578735,9.885103225708008,2.3211207389831543,0
1638807,2024-02-06 10:15:39.892336,-0.17468228936195374,8.492430686950684,2.3211207389831543,0
1638883,2024-02-06 10:15:39.967704,-0.3732936680316925,9.191160202026367,2.141652822494507,0
1638960,2024-02-06 10:15:40.043064,-0.8494823575019836,9.253376007080078,2.9672060012817383,0
1639037,2024-02-06 10:15:40.118070,-0.7800880670547485,8.908797264099121,2.7422726154327393,0
1639113,2024-02-06 10:15:40.193097,-1.3854937553405762,8.75086498260498,2.522125244140625,0
1639190,2024-02-06 10:15:40.268042,-0.7489802241325378,9.667348861694336,3.792759418487549,0
1639266,2024-02-06 10:15:40.343205,0.41875892877578735,11.957362174987793,3.500824451446533,0
1639342,2024-02-06 10:15:40.417827,0.7513731122016907,10.593403816223145,2.134474039077759,0
1639419,2024-02-06 10:15:40.508040,1.3137065172195435,7.209832191467285,0.9260554313659668,0
1639496,2024-02-06 10:15:40.583107,0.844696581363678,9.265339851379395,1.1964540481567383,0
1639572,2024-02-06 10:15:40.657321,0.6604426503181458,10.18182373046875,2.3522286415100098,0
1639649,2024-02-06 10:15:40.732336,1.2323477268218994,8.320141792297363,2.270869731903076,0
1639725,2024-02-06 10:15:40.808032,0.8351249098777771,9.291662216186523,2.0698654651641846,0
1639801,2024-02-06 10:15:40.883030,0.45943835377693176,9.36584186553955,2.333085298538208,0
1639878,2024-02-06 10:15:40.957560,0.7489802241325378,9.19355297088623,2.254119396209717,0
1639955,2024-02-06 10:15:41.033020,1.1725249290466309,9.40173625946045,1.904754877090454,0
1640031,2024-02-06 10:15:41.108085,0.1005021408200264,9.389771461486816,2.7949166297912598,0
1640108,2024-02-06 10:15:41.183067,0.09810923039913177,11.49313735961914,2.249333620071411,0
1640184,2024-02-06 10:15:41.273004,0.46661707758903503,10.327791213989258,2.1057591438293457,0
1640260,2024-02-06 10:15:41.347917,-0.9739136099815369,8.04017162322998,0.9619490504264832,0
1640337,2024-02-06 10:15:41.422857,-1.2179901599884033,8.899225234985352,1.5649619102478027,0
1640414,2024-02-06 10:15:41.498094,-0.35893622040748596,10.552724838256836,2.565197467803955,0
1640491,2024-02-06 10:15:41.572918,-1.3615647554397583,8.15981674194336,2.5963053703308105,0
1640567,2024-02-06 10:15:41.647933,-1.1079164743423462,9.026049613952637,2.8906328678131104,0
1640643,2024-02-06 10:15:41.723021,-0.9093050956726074,8.908797264099121,2.9552414417266846,0
1640720,2024-02-06 10:15:41.797747,-0.6987291574478149,8.901618003845215,2.4072654247283936,0
1640796,2024-02-06 10:15:41.872647,-1.0098072290420532,9.451987266540527,2.72552227973938,0
1640873,2024-02-06 10:15:41.948043,0.5814766883850098,10.813551902770996,4.003335475921631,0
1640950,2024-02-06 10:15:42.038034,-0.27997025847435,11.966933250427246,1.7731448411941528,0
1641026,2024-02-06 10:15:42.113071,0.6771929860115051,8.789151191711426,0.6532639265060425,0
1641102,2024-02-06 10:15:42.188072,1.6152129173278809,7.16197395324707,0.30629223585128784,0
1641179,2024-02-06 10:15:42.263043,0.8566610813140869,10.638869285583496,0.8925547003746033,0
1641255,2024-02-06 10:15:42.338087,1.356778860092163,9.339520454406738,1.2802058458328247,0
1641332,2024-02-06 10:15:42.413072,1.2275618314743042,8.954261779785156,1.4883887767791748,0
1641409,2024-02-06 10:15:42.488127,0.8877689242362976,9.89706802368164,1.5793193578720093,0
1641485,2024-02-06 10:15:42.562887,0.4714028835296631,9.188767433166504,2.0052568912506104,0
1641561,2024-02-06 10:15:42.638150,0.3804723918437958,9.418486595153809,2.2325832843780518,0
1641638,2024-02-06 10:15:42.713044,-0.08853759616613388,9.310805320739746,2.761415958404541,0
1641714,2024-02-06 10:15:42.803039,-0.18903973698616028,9.286876678466797,2.979170560836792,0
1641791,2024-02-06 10:15:42.878042,0.6460852026939392,12.904953002929688,2.0196144580841064,0
1641868,2024-02-06 10:15:42.953036,0.23929080367088318,8.303391456604004,1.6630711555480957,0
1641944,2024-02-06 10:15:43.028042,-0.260826975107193,7.932490348815918,0.9428057670593262,0
1642020,2024-02-06 10:15:43.103023,0.1603248417377472,11.342384338378906,2.0196144580841064,0
1642097,2024-02-06 10:15:43.178001,0.23689790070056915,8.7843656539917,2.536482572555542,0
1642173,2024-02-06 10:15:43.252991,-0.4259376525878906,8.860939025878906,2.3426570892333984,0
1642250,2024-02-06 10:15:43.343038,-0.6054057478904724,9.36823558807373,2.278048515319824,0
1642327,2024-02-06 10:15:43.402998,-0.8758043646812439,9.274911880493164,2.718343496322632,0
1642403,2024-02-06 10:15:43.477998,-2.1201164722442627,9.691277503967285,2.2947988510131836,0
1642479,2024-02-06 10:15:43.567976,-1.2802058458328247,10.062178611755371,3.196925163269043,0
1642556,2024-02-06 10:15:43.642997,0.569512128829956,9.865960121154785,1.1677391529083252,0
1642632,2024-02-06 10:15:43.718013,0.8423036336898804,9.569239616394043,0.9093050956726074,0
1642708,2024-02-06 10:15:43.793006,0.6891575455665588,8.83700942993164,1.1079164743423462,0
1642785,2024-02-06 10:15:43.868016,-0.4642241597175598,9.674527168273926,1.0241646766662598,0
1642862,2024-02-06 10:15:43.943009,0.1603248417377472,10.169858932495117,1.0696299076080322,0
1642938,2024-02-06 10:15:44.017865,0.24646952748298645,9.679313659667969,1.2132043838500977,0
1643015,2024-02-06 10:15:44.092383,0.6867645978927612,9.54052448272705,1.2921704053878784,0
1643091,2024-02-06 10:15:44.167258,0.46900999546051025,9.796566009521484,0.9284483194351196,0
1643167,2024-02-06 10:15:44.243040,0.20579010248184204,9.995177268981934,1.2443121671676636,0
1643244,2024-02-06 10:15:44.332802,0.5814766883850098,9.664956092834473,1.3759222030639648,0
1643321,2024-02-06 10:15:44.407762,0.20818300545215607,9.449594497680664,1.5506044626235962,0
1643397,2024-02-06 10:15:44.482991,-0.12682412564754486,9.078693389892578,1.749215841293335,0
1643474,2024-02-06 10:15:44.558040,-0.34697166085243225,9.775029182434082,2.053115129470825,0
1643550,2024-02-06 10:15:44.632547,-0.5025107264518738,9.576417922973633,1.9526129961013794,0
1643626,2024-02-06 10:15:44.708026,-0.48576033115386963,9.215088844299316,1.770751953125,0
1643703,2024-02-06 10:15:44.783323,-0.6412993669509888,9.47113037109375,1.718108057975769,0
1643780,2024-02-06 10:15:44.858483,-0.904519259929657,9.547703742980957,1.7898952960968018,0
1643856,2024-02-06 10:15:44.933464,-1.2490980625152588,9.734350204467773,1.718108057975769,0
1643933,2024-02-06 10:15:45.008460,-1.521889567375183,9.940139770507812,1.591283917427063,0
1644009,2024-02-06 10:15:45.098013,-1.1868823766708374,9.361056327819824,1.718108057975769,0
1644085,2024-02-06 10:15:45.172962,-1.1079164743423462,9.64341926574707,2.1871180534362793,0
1644162,2024-02-06 10:15:45.247475,-1.4453164339065552,9.327555656433105,1.9597917795181274,0
1644239,2024-02-06 10:15:45.322813,-1.2921704053878784,9.624276161193848,2.263690948486328,0
1644315,2024-02-06 10:15:45.398039,-1.1868823766708374,9.286876678466797,1.7970739603042603,0
1644392,2024-02-06 10:15:45.472840,-0.5910483002662659,9.126551628112793,1.830574631690979,0
1644468,2024-02-06 10:15:45.547798,0.1698964685201645,9.389771461486816,1.612820029258728,0
1644544,2024-02-06 10:15:45.622342,0.4953319728374481,9.172017097473145,1.1557745933532715,0
1644621,2024-02-06 10:15:45.697294,0.6030128598213196,9.923389434814453,0.8231604099273682,0
1644698,2024-02-06 10:15:45.787979,0.5312256217002869,10.162680625915527,0.765730619430542,0
1644774,2024-02-06 10:15:45.847718,0.4115802049636841,9.877924919128418,0.8901618123054504,0
1644851,2024-02-06 10:15:45.938000,0.5360113978385925,9.82528018951416,0.588655412197113,0
1644927,2024-02-06 10:15:46.012816,0.2943277060985565,9.873138427734375,0.4642241597175598,0
1645003,2024-02-06 10:15:46.087485,0.7346227765083313,9.911425590515137,0.7178724408149719,0
1645080,2024-02-06 10:15:46.162871,1.0074143409729004,9.894675254821777,0.8542681932449341,0
1645157,2024-02-06 10:15:46.238125,1.0911661386489868,10.390007019042969,0.9667348861694336,0
1645233,2024-02-06 10:15:46.312999,0.20579010248184204,8.877689361572266,1.208418607711792,0
1645310,2024-02-06 10:15:46.388084,-0.32782840728759766,9.428057670593262,1.6152129173278809,0
1645386,2024-02-06 10:15:46.463003,-0.014357448555529118,9.813316345214844,1.2825987339019775,0
1645462,2024-02-06 10:15:46.538075,-0.5384043455123901,9.169623374938965,1.6774286031723022,0
1645539,2024-02-06 10:15:46.627982,-1.3519930839538574,9.786993980407715,2.359407424926758,0
1645616,2024-02-06 10:15:46.717975,-1.517103672027588,9.29644775390625,2.5388755798339844,0
1645692,2024-02-06 10:15:46.777636,-1.6271774768829346,8.48285961151123,2.2589051723480225,0
1645769,2024-02-06 10:15:46.852957,-1.5458186864852905,9.136122703552246,2.3976938724517822,0
1645845,2024-02-06 10:15:46.927973,-1.3400285243988037,9.224660873413086,2.593912363052368,0
1645921,2024-02-06 10:15:47.002955,-1.454888105392456,9.133729934692383,2.6082699298858643,0
1645998,2024-02-06 10:15:47.077622,-1.651106595993042,9.078693389892578,2.558018684387207,0
1646075,2024-02-06 10:15:47.153026,-1.8233959674835205,9.162445068359375,2.634591817855835,0
1646151,2024-02-06 10:15:47.242814,-1.4596738815307617,9.308412551879883,3.2232472896575928,0
1646228,2024-02-06 10:15:47.302987,-1.179703712463379,9.490273475646973,3.4051082134246826,0
1646304,2024-02-06 10:15:47.392242,-0.8566610813140869,11.457243919372559,0.8494823575019836,0
1646380,2024-02-06 10:15:47.467176,0.8183745741844177,8.906403541564941,1.6917860507965088,0
1646457,2024-02-06 10:15:47.542161,1.299349069595337,8.504395484924316,0.5742979645729065,0
1646534,2024-02-06 10:15:47.618041,0.5264397859573364,9.631455421447754,1.6654640436172485,0
1646610,2024-02-06 10:15:47.692966,-0.27997025847435,10.272754669189453,1.7252867221832275,0
1646687,2024-02-06 10:15:47.767952,0.708300769329071,8.839402198791504,1.6247845888137817,0
1646763,2024-02-06 10:15:47.842228,0.5671192407608032,9.04519271850586,1.718108057975769,0
1646840,2024-02-06 10:15:47.918087,0.1722893863916397,9.423272132873535,1.7157150506973267,0
1646916,2024-02-06 10:15:47.992985,0.02632198855280876,9.11458683013916,2.1536173820495605,0
1646993,2024-02-06 10:15:48.067714,0.37568655610084534,9.48788070678711,2.3976938724517822,0
1647069,2024-02-06 10:15:48.157959,0.12203831225633621,9.437629699707031,2.8786685466766357,0
1647146,2024-02-06 10:15:48.232991,-0.7992312908172607,9.779815673828125,3.6659352779388428,0
1647222,2024-02-06 10:15:48.308000,1.019378900527954,12.237332344055176,1.7013576030731201,0
1647298,2024-02-06 10:15:48.382950,-0.5719050168991089,7.705163955688477,1.6750357151031494,0
1647375,2024-02-06 10:15:48.458023,-0.46900999546051025,7.609447956085205,0.5336185097694397,0
1647452,2024-02-06 10:15:48.532946,0.40679436922073364,11.624747276306152,1.6247845888137817,0
1647528,2024-02-06 10:15:48.607972,-0.028714897111058235,8.729329109191895,2.10097336769104,0
1647605,2024-02-06 10:15:48.682974,-0.6436922550201416,9.040407180786133,1.8592896461486816,0
1647681,2024-02-06 10:15:48.757989,-1.1725249290466309,9.169623374938965,2.5675904750823975,0
1647757,2024-02-06 10:15:48.832959,-1.1127022504806519,8.9231538772583,3.0461719036102295,0
1647834,2024-02-06 10:15:48.922893,-1.5051392316818237,9.231839179992676,2.91695499420166,0
1647911,2024-02-06 10:15:48.998055,-0.8494823575019836,9.030835151672363,3.534325361251831,0
1647988,2024-02-06 10:15:49.072662,-0.7130866050720215,8.918368339538574,3.907618999481201,0
1648064,2024-02-06 10:15:49.147786,1.7516087293624878,12.38808536529541,1.689393162727356,0
1648140,2024-02-06 10:15:49.222889,1.6056413650512695,9.521381378173828,1.1198810338974,0
1648217,2024-02-06 10:15:49.297977,2.2230117321014404,6.4321370124816895,0.09332341700792313,0
1648293,2024-02-06 10:15:49.372930,1.1581674814224243,10.526402473449707,0.5527617931365967,0
1648370,2024-02-06 10:15:49.447943,2.2230117321014404,9.679313659667969,1.3304568529129028,0
1648447,2024-02-06 10:15:49.522785,2.177546262741089,8.94947624206543,1.1079164743423462,0
1648523,2024-02-06 10:15:49.597835,1.7683590650558472,9.430450439453125,1.103130578994751,0
1648599,2024-02-06 10:15:49.687976,1.5266753435134888,9.46155834197998,1.4142086505889893,0
1648676,2024-02-06 10:15:49.762957,0.7298369407653809,9.21748161315918,1.739644169807434,0
1648752,2024-02-06 10:15:49.838001,-0.5647262930870056,11.734821319580078,1.9980782270431519,0
1648829,2024-02-06 10:15:49.912787,1.1725249290466309,10.3804349899292,2.263690948486328,0
1648906,2024-02-06 10:15:49.987897,0.3948298394680023,8.339284896850586,0.8470894694328308,0
1648982,2024-02-06 10:15:50.062958,-0.8949476480484009,8.375178337097168,1.2132043838500977,0
1649058,2024-02-06 10:15:50.137992,-0.6891575455665588,11.170095443725586,2.0842230319976807,0
1649135,2024-02-06 10:15:50.212944,-0.5766908526420593,8.458930015563965,2.278048515319824,0
1649211,2024-02-06 10:15:50.287992,-0.8470894694328308,9.581204414367676,2.1129379272460938,0
1649288,2024-02-06 10:15:50.362125,-1.3711363077163696,9.021263122558594,2.275655508041382,0
1649365,2024-02-06 10:15:50.452982,-1.1629533767700195,9.049978256225586,2.4216229915618896,0
1649441,2024-02-06 10:15:50.527947,-0.6771929860115051,9.093050956726074,2.2732627391815186,0
1649517,2024-02-06 10:15:50.602936,-0.22732627391815186,9.839637756347656,2.5963053703308105,0
1649594,2024-02-06 10:15:50.677222,0.13878867030143738,8.920761108398438,2.8906328678131104,0
1649670,2024-02-06 10:15:50.752255,0.8088029623031616,9.363449096679688,3.5175747871398926,0
1649747,2024-02-06 10:15:50.827925,0.8111958503723145,8.789151191711426,3.0126712322235107,0
1649824,2024-02-06 10:15:50.902977,-0.30629223585128784,14.132514953613281,-0.3421858549118042,0
1649900,2024-02-06 10:15:50.977943,1.3113136291503906,7.382121562957764,0.7489802241325378,0
1649976,2024-02-06 10:15:51.052919,0.382865309715271,9.121766090393066,-0.023929081857204437,0
1650053,2024-02-06 10:15:51.127923,0.011964540928602219,9.736742973327637,0.9451987147331238,0
1650129,2024-02-06 10:15:51.217927,1.6534994840621948,9.317984580993652,1.6606782674789429,0
1650206,2024-02-06 10:15:51.292996,0.952377438545227,9.514202117919922,1.4524952173233032,0
1650283,2024-02-06 10:15:51.367942,0.7011220455169678,8.853759765625,1.32806396484375,0
1650359,2024-02-06 10:15:51.442905,1.1677391529083252,8.523538589477539,0.9069121479988098,0
1650435,2024-02-06 10:15:51.517984,0.7226582169532776,8.164602279663086,0.1507532149553299,0
1650512,2024-02-06 10:15:51.592785,-0.48576033115386963,7.169152736663818,-0.19382555782794952,0
1650588,2024-02-06 10:15:51.667951,2.5245180130004883,8.875295639038086,-2.72552227973938,0
1650665,2024-02-06 10:15:51.742968,0.4044014811515808,8.293819427490234,-2.950455665588379,0
1650742,2024-02-06 10:15:51.817934,-0.055036887526512146,3.364428758621216,-6.482388019561768,0
1650818,2024-02-06 10:15:51.892611,-1.306527853012085,3.2902486324310303,-5.896125316619873,0
1650894,2024-02-06 10:15:51.982953,-1.7085363864898682,3.857367753982544,-6.848503112792969,1
1650971,2024-02-06 10:15:52.057903,1.2945632934570312,3.2352118492126465,-9.363449096679688,1
1651047,2024-02-06 10:15:52.132914,0.7178724408149719,4.6757426261901855,-11.0432710647583,1
1651124,2024-02-06 10:15:52.207914,-7.384514331817627,4.240232944488525,-15.056178092956543,1
1651201,2024-02-06 10:15:52.282954,2.0411505699157715,-2.3354783058166504,-13.18492317199707,1
1651277,2024-02-06 10:15:52.357945,-3.91479754447937,-0.8949476480484009,-11.277775764465332,1
1651353,2024-02-06 10:15:52.432908,-4.647027492523193,1.3783150911331177,-10.717835426330566,1
1651430,2024-02-06 10:15:52.507914,-3.56782603263855,2.9480626583099365,-7.508945465087891,1
1651506,2024-02-06 10:15:52.582913,-0.44029510021209717,3.4314301013946533,-7.0854010581970215,1
1651583,2024-02-06 10:15:52.657190,-8.693434715270996,2.601091146469116,-8.901618003845215,1
1651660,2024-02-06 10:15:52.747865,-2.9983139038085938,6.807823657989502,-9.987998008728027,1
1651736,2024-02-06 10:15:52.822864,-0.8183745741844177,7.836773872375488,-10.136358261108398,1
1651812,2024-02-06 10:15:52.897925,-5.508474349975586,5.171074390411377,-4.989213466644287,1
1651889,2024-02-06 10:15:52.972403,-5.474973678588867,6.520674705505371,-4.060765266418457,1
1651965,2024-02-06 10:15:53.047726,-6.1306304931640625,5.714264392852783,-3.8382246494293213,1
1652041,2024-02-06 10:15:53.122864,-6.422565460205078,5.848267555236816,-3.1179592609405518,1
1652118,2024-02-06 10:15:53.197914,-6.599640369415283,6.602033615112305,-2.921740770339966,1
1652195,2024-02-06 10:15:53.272401,-6.9178972244262695,6.405815124511719,-2.5675904750823975,1
1652271,2024-02-06 10:15:53.347766,-6.7767157554626465,6.499138355255127,-2.6465563774108887,1
1652348,2024-02-06 10:15:53.422576,-6.774322986602783,6.063629150390625,-2.9887421131134033,1
1652424,2024-02-06 10:15:53.512256,-7.3175129890441895,6.1306304931640625,-3.1083877086639404,1
1652500,2024-02-06 10:15:53.587549,-7.516124248504639,5.742979526519775,-3.912404775619507,1
1652577,2024-02-06 10:15:53.662221,-7.274440765380859,5.312255859375,-3.5103962421417236,0
1652654,2024-02-06 10:15:53.737892,-7.176331520080566,5.513260364532471,-3.35964298248291,0
1652731,2024-02-06 10:15:53.813016,-7.841559886932373,5.872196674346924,-3.153852939605713,0
1652807,2024-02-06 10:15:53.887982,-7.470659255981445,5.647263050079346,-3.218461275100708,0
1652883,2024-02-06 10:15:53.962860,-7.133258819580078,5.845874309539795,-2.9408841133117676,0
1652960,2024-02-06 10:15:54.037978,-7.542446136474609,5.61615514755249,-3.450573444366455,0
1653037,2024-02-06 10:15:54.112883,-7.269654750823975,5.7860517501831055,-3.4027152061462402,0
1653113,2024-02-06 10:15:54.187965,-7.327084541320801,5.970305919647217,-3.8597607612609863,0
1653190,2024-02-06 10:15:54.277891,-7.17872428894043,6.159345626831055,-3.5175747871398926,0
1653266,2024-02-06 10:15:54.352910,-6.401029109954834,6.441708564758301,-3.878904104232788,0
1653342,2024-02-06 10:15:54.427892,-6.494352340698242,7.047114372253418,-3.795152187347412,0
1653419,2024-02-06 10:15:54.502920,-5.608976364135742,7.449122905731201,-3.759258508682251,0
1653496,2024-02-06 10:15:54.577800,-4.91264009475708,7.987527370452881,-3.5917551517486572,0
1653572,2024-02-06 10:15:54.652892,-5.460616111755371,7.585518836975098,-3.4098939895629883,0
1653649,2024-02-06 10:15:54.727871,-5.032285690307617,8.51396656036377,-2.565197467803955,0
1653725,2024-02-06 10:15:54.802907,-4.3670573234558105,8.198102951049805,-1.8664683103561401,0
1653801,2024-02-06 10:15:54.877919,-3.8597607612609863,8.810688018798828,-1.7683590650558472,0
1653878,2024-02-06 10:15:54.952896,-3.548682689666748,8.535503387451172,-0.9284483194351196,0
1653955,2024-02-06 10:15:55.042880,-3.2352118492126465,8.913582801818848,-0.7106937170028687,0
1654031,2024-02-06 10:15:55.117881,-1.6654640436172485,9.377806663513184,-0.11725249886512756,0
1654108,2024-02-06 10:15:55.192984,-1.868861198425293,9.81810188293457,-0.16750356554985046,0
1654184,2024-02-06 10:15:55.267029,-2.677664041519165,9.772636413574219,0.4450809061527252,0
1654260,2024-02-06 10:15:55.342694,-1.0600582361221313,9.696063995361328,0.11485958844423294,0
1654337,2024-02-06 10:15:55.417904,-1.4764243364334106,10.076536178588867,0.2416837215423584,0
1654414,2024-02-06 10:15:55.492733,-2.4503378868103027,9.504631042480469,1.2251689434051514,0
1654490,2024-02-06 10:15:55.567589,-1.7683590650558472,9.8444242477417,1.3232781887054443,0
1654567,2024-02-06 10:15:55.642184,-2.6609137058258057,8.906403541564941,1.3137065172195435,0
1654643,2024-02-06 10:15:55.717198,-2.790130853652954,9.231839179992676,1.2634555101394653,0
1654719,2024-02-06 10:15:55.807645,-3.436216115951538,8.418251037597656,1.2538838386535645,0
1654796,2024-02-06 10:15:55.882859,-3.273498296737671,7.8942036628723145,2.0626866817474365,0
1654873,2024-02-06 10:15:55.957695,-2.938491106033325,8.518753051757812,1.9310768842697144,0
1654949,2024-02-06 10:15:56.032105,-3.302213191986084,8.188531875610352,2.0698654651641846,0
1655026,2024-02-06 10:15:56.107899,-4.072729587554932,8.15024471282959,2.3306925296783447,0
1655102,2024-02-06 10:15:56.182853,-3.6156840324401855,7.944454669952393,2.129688262939453,0
1655178,2024-02-06 10:15:56.257883,-3.9602627754211426,8.461322784423828,2.6250202655792236,0
1655255,2024-02-06 10:15:56.332699,-3.8836898803710938,9.542917251586914,2.8714897632598877,0
1655332,2024-02-06 10:15:56.407313,-4.199553489685059,8.808294296264648,2.9815635681152344,0
1655408,2024-02-06 10:15:56.482887,-4.3957719802856445,8.439786911010742,3.2782840728759766,0
1655485,2024-02-06 10:15:56.572824,-4.46277379989624,7.145223617553711,4.034442901611328,0
1655561,2024-02-06 10:15:56.647700,-4.302448749542236,7.7745585441589355,2.5556259155273438,0
1655637,2024-02-06 10:15:56.722815,-5.419936656951904,6.977719783782959,2.5101606845855713,0
1655714,2024-02-06 10:15:56.797894,-5.628119945526123,7.441944122314453,2.1272952556610107,0
1655791,2024-02-06 10:15:56.872107,-5.625726699829102,6.95379114151001,2.2110471725463867,0
1655867,2024-02-06 10:15:56.947759,-6.178488731384277,6.587676048278809,2.376157760620117,0
1655944,2024-02-06 10:15:57.022704,-5.345756530761719,6.283776760101318,1.9382555484771729,0
1656020,2024-02-06 10:15:57.097873,-6.422565460205078,6.599640369415283,1.7300724983215332,0
1656096,2024-02-06 10:15:57.187960,-6.479995250701904,6.95379114151001,1.3400285243988037,0
1656173,2024-02-06 10:15:57.247896,-6.020556926727295,8.851366996765137,0.15553902089595795,0
1656250,2024-02-06 10:15:57.337921,-5.991841793060303,11.622354507446289,-0.6460852026939392,0
1656326,2024-02-06 10:15:57.412123,-5.094501495361328,12.797272682189941,-3.048564910888672,0
1656403,2024-02-06 10:15:57.487813,-3.3141777515411377,10.507259368896484,-2.5628044605255127,0
1656479,2024-02-06 10:15:57.562894,-4.594383716583252,9.224660873413086,-4.422094345092773,0
1656555,2024-02-06 10:15:57.637055,-2.431194543838501,9.298840522766113,-4.572847366333008,0
1656632,2024-02-06 10:15:57.712417,-2.4144442081451416,9.329948425292969,-5.321827411651611,0
1656708,2024-02-06 10:15:57.787944,-3.254354953765869,9.186373710632324,-5.470187664031982,0
1656785,2024-02-06 10:15:57.863182,-3.1107804775238037,10.043035507202148,-5.151931285858154,0
1656862,2024-02-06 10:15:57.937823,-2.445552110671997,9.317984580993652,-4.429272651672363,0
1656938,2024-02-06 10:15:58.013303,-2.4120514392852783,8.408679008483887,-3.1442811489105225,0
1657014,2024-02-06 10:15:58.102863,-1.4309589862823486,7.164366722106934,-2.1129379272460938,0
1657091,2024-02-06 10:15:58.177711,-1.2443121671676636,6.748000621795654,-1.5482115745544434,0
1657167,2024-02-06 10:15:58.252841,-0.4737958014011383,6.087558269500732,-1.5769264698028564,0
1657244,2024-02-06 10:15:58.327909,-0.4307234585285187,6.5733184814453125,-1.6104271411895752,0
1657321,2024-02-06 10:15:58.402911,0.39722275733947754,7.975562572479248,-0.9260554313659668,0
1657397,2024-02-06 10:15:58.477112,0.619763195514679,10.361291885375977,-0.5958341360092163,0
1657473,2024-02-06 10:15:58.552845,0.2703986167907715,9.712814331054688,0.10528795421123505,0
1657550,2024-02-06 10:15:58.627901,0.5072965025901794,9.370628356933594,-0.29911351203918457,0
1657626,2024-02-06 10:15:58.702639,0.569512128829956,10.021498680114746,0.27997025847435,0
1657703,2024-02-06 10:15:58.777830,1.3376356363296509,9.6697416305542,0.3015064299106598,0
1657780,2024-02-06 10:15:58.867833,1.8664683103561401,9.394556999206543,0.3517574965953827,0
1657856,2024-02-06 10:15:58.942841,1.7157150506973267,9.308412551879883,0.5527617931365967,0
1657932,2024-02-06 10:15:59.017715,1.3496001958847046,9.473523139953613,0.5551546812057495,0
1658009,2024-02-06 10:15:59.092832,-0.22971917688846588,8.961441040039062,1.1222739219665527,0
1658085,2024-02-06 10:15:59.167818,-1.749215841293335,8.561824798583984,1.9334697723388672,0
1658162,2024-02-06 10:15:59.242885,-1.3137065172195435,12.952811241149902,3.5175747871398926,0
1658239,2024-02-06 10:15:59.317821,-0.6245490312576294,9.344305992126465,1.8497179746627808,0
1658315,2024-02-06 10:15:59.392837,-1.3926725387573242,8.456537246704102,1.8162171840667725,0
1658391,2024-02-06 10:15:59.467693,-1.7922881841659546,9.822887420654297,2.0914015769958496,0
1658468,2024-02-06 10:15:59.542673,-1.876039981842041,9.40173625946045,1.9813278913497925,0
1658544,2024-02-06 10:15:59.632833,-1.6104271411895752,8.95665454864502,1.454888105392456,0
1658621,2024-02-06 10:15:59.707851,-1.8353605270385742,9.021263122558594,1.904754877090454,0
1658698,2024-02-06 10:15:59.782854,-2.038757801055908,9.516595840454102,1.6534994840621948,0
1658774,2024-02-06 10:15:59.857673,-1.8927903175354004,9.20073127746582,1.945434331893921,0
1658850,2024-02-06 10:15:59.932820,-1.4524952173233032,9.416092872619629,2.1895108222961426,0
1658927,2024-02-06 10:16:00.007156,-1.0863802433013916,9.37541389465332,2.735093832015991,0
1659003,2024-02-06 10:16:00.082857,-0.04546525329351425,9.856388092041016,2.5699832439422607,0
1659080,2024-02-06 10:16:00.157832,0.648478090763092,9.440022468566895,2.615448474884033,0
1659157,2024-02-06 10:16:00.232824,0.16271774470806122,10.631690979003906,1.9980782270431519,0
1659233,2024-02-06 10:16:00.322818,0.5790837407112122,8.217246055603027,1.6582852602005005,0
1659309,2024-02-06 10:16:00.382471,1.5506044626235962,9.789386749267578,2.086615800857544,0
1659386,2024-02-06 10:16:00.487630,1.4788172245025635,9.241411209106445,2.1201164722442627,0
1659462,2024-02-06 10:16:00.547370,1.103130578994751,9.081086158752441,2.0746512413024902,0
1659539,2024-02-06 10:16:00.622724,1.1342384815216064,9.435236930847168,1.9861136674880981,0
1659616,2024-02-06 10:16:00.712131,0.9140908718109131,9.20073127746582,2.141652822494507,0
1659692,2024-02-06 10:16:00.772100,0.33740004897117615,9.363449096679688,2.3139421939849854,0
1659768,2024-02-06 10:16:00.847672,0.26561281085014343,9.588382720947266,2.5484471321105957,0
1659845,2024-02-06 10:16:00.922653,0.30629223585128784,9.638633728027344,2.9767775535583496,0
1659921,2024-02-06 10:16:00.997375,1.2419192790985107,10.734585762023926,2.507767677307129,0
1659998,2024-02-06 10:16:01.072789,0.4737958014011383,10.11242961883545,1.9167194366455078,0
1660075,2024-02-06 10:16:01.162843,-0.19861137866973877,8.233996391296387,1.2514909505844116,0
1660151,2024-02-06 10:16:01.237844,-1.0169858932495117,8.753257751464844,0.8279461860656738,0
1660228,2024-02-06 10:16:01.312833,-0.16271774470806122,10.619726181030273,2.4718739986419678,0
1660304,2024-02-06 10:16:01.387920,-0.12443122267723083,9.13133716583252,2.438373327255249,0
1660380,2024-02-06 10:16:01.462810,-0.5527617931365967,8.779580116271973,2.010042905807495,0
1660457,2024-02-06 10:16:01.537824,-0.6556568145751953,9.12415885925293,2.6656997203826904,0
1660534,2024-02-06 10:16:01.612821,-0.8159816861152649,8.93272590637207,2.6441633701324463,0
1660610,2024-02-06 10:16:01.687822,-1.1079164743423462,9.19355297088623,2.464695453643799,0
1660687,2024-02-06 10:16:01.762685,-1.799466848373413,9.28926944732666,3.163424491882324,0
1660763,2024-02-06 10:16:01.837755,-0.1914326548576355,11.34477710723877,3.0318145751953125,0
1660839,2024-02-06 10:16:01.927834,1.4309589862823486,10.658012390136719,1.1868823766708374,0
1660916,2024-02-06 10:16:02.002861,1.1222739219665527,9.061943054199219,0.0047858161851763725,0
1660993,2024-02-06 10:16:02.077662,1.5075321197509766,8.817866325378418,0.44029510021209717,0
1661069,2024-02-06 10:16:02.152795,1.268241286277771,10.141144752502441,1.1581674814224243,0
1661146,2024-02-06 10:16:02.227839,1.9908995628356934,9.346698760986328,1.148595929145813,0
1661222,2024-02-06 10:16:02.302909,1.335242748260498,9.36584186553955,1.2108114957809448,0
1661298,2024-02-06 10:16:02.377634,0.8423036336898804,9.717599868774414,1.5003533363342285,0
1661375,2024-02-06 10:16:02.452780,0.7753022313117981,9.282090187072754,1.7922881841659546,0
1661452,2024-02-06 10:16:02.527832,0.9715206623077393,9.358663558959961,1.957398772239685,0
1661528,2024-02-06 10:16:02.602601,-0.007178724277764559,10.701085090637207,1.742037057876587,0
1661605,2024-02-06 10:16:02.692688,-0.7513731122016907,8.382356643676758,0.5384043455123901,0
1661681,2024-02-06 10:16:02.767804,-0.22493335604667664,10.519224166870117,0.7011220455169678,0
1661757,2024-02-06 10:16:02.842813,-0.7346227765083313,9.853995323181152,0.7394086122512817,0
1661834,2024-02-06 10:16:02.917622,-1.777930736541748,10.162680625915527,0.13878867030143738,0
1661911,2024-02-06 10:16:02.992803,-2.416837215423584,8.808294296264648,0.14596739411354065,0
1661987,2024-02-06 10:16:03.067820,-2.1966896057128906,9.349091529846191,0.27757734060287476,0
1662064,2024-02-06 10:16:03.142851,-1.6463208198547363,9.784601211547852,-0.0023929080925881863,0
1662140,2024-02-06 10:16:03.217050,-1.8138242959976196,9.700849533081055,-0.18664683401584625,0
1662216,2024-02-06 10:16:03.292774,-1.718108057975769,9.691277503967285,0.10528795421123505,0
1662293,2024-02-06 10:16:03.367807,-0.6580497026443481,10.574260711669922,-1.1198810338974,0
1662370,2024-02-06 10:16:03.457679,-0.11485958844423294,9.798958778381348,-0.7202653288841248,0
1662446,2024-02-06 10:16:03.532833,0.3015064299106598,8.968619346618652,-1.8903974294662476,0
1662523,2024-02-06 10:16:03.607794,-0.509689450263977,10.126787185668945,-1.5553902387619019,0
1662599,2024-02-06 10:16:03.697778,0.9858781099319458,9.763065338134766,-1.296956181526184,0
1662675,2024-02-06 10:16:03.757328,0.6939433217048645,8.999727249145508,-1.3496001958847046,0
1662752,2024-02-06 10:16:03.832340,0.37807947397232056,9.030835151672363,-1.5984625816345215,0
1662829,2024-02-06 10:16:03.907823,0.18425391614437103,8.571396827697754,-1.974149227142334,0
1662905,2024-02-06 10:16:03.982854,-0.07418014854192734,8.896832466125488,-2.718343496322632,0
1662982,2024-02-06 10:16:04.057823,-1.0576653480529785,8.961441040039062,-4.450809001922607,0
1663058,2024-02-06 10:16:04.132835,-1.2419192790985107,9.57402515411377,-4.0440144538879395,0
1663134,2024-02-06 10:16:04.222748,-1.4381377696990967,8.310569763183594,-3.3835721015930176,0
1663211,2024-02-06 10:16:04.297802,-0.7202653288841248,5.381650447845459,-3.519967794418335,0
1663288,2024-02-06 10:16:04.372596,-1.6941789388656616,4.670956611633301,-5.910482883453369,0
1663364,2024-02-06 10:16:04.447770,-1.9023619890213013,7.858310222625732,-6.903539657592773,0
1663441,2024-02-06 10:16:04.522644,-0.12203831225633621,6.8748250007629395,-7.3246917724609375,0
1663517,2024-02-06 10:16:04.597012,-0.7513731122016907,6.412993907928467,-7.738664627075195,0
1663593,2024-02-06 10:16:04.672100,-1.237133502960205,5.812373638153076,-8.413464546203613,0
1663670,2024-02-06 10:16:04.747573,-0.41875892877578735,6.142595291137695,-8.329712867736816,0
1663747,2024-02-06 10:16:04.822631,-0.7705163955688477,5.1902174949646,-8.317748069763184,0
1663824,2024-02-06 10:16:04.897205,-1.072022795677185,5.812373638153076,-8.39432144165039,0
1663900,2024-02-06 10:16:04.987859,-1.6008554697036743,6.685785293579102,-7.961205005645752,0
1663976,2024-02-06 10:16:05.062689,-1.6941789388656616,7.848738670349121,-8.068885803222656,0
1664053,2024-02-06 10:16:05.137898,-2.4264087677001953,8.470894813537598,-7.52569580078125,0
1664129,2024-02-06 10:16:05.212829,-2.565197467803955,9.167230606079102,-6.551782131195068,0
1664206,2024-02-06 10:16:05.287721,-2.881061315536499,9.317984580993652,-5.697514057159424,0
1664283,2024-02-06 10:16:05.362882,-3.0461719036102295,9.284482955932617,-4.950926780700684,0
1664359,2024-02-06 10:16:05.437800,-3.2495691776275635,9.12415885925293,-3.886082649230957,0
1664435,2024-02-06 10:16:05.512776,-3.450573444366455,8.446965217590332,-3.161031484603882,0
1664512,2024-02-06 10:16:05.587721,-3.5032174587249756,8.32492733001709,-2.8690967559814453,0
1664588,2024-02-06 10:16:05.662078,-4.541739463806152,8.566611289978027,-2.0339717864990234,0
1664665,2024-02-06 10:16:05.752094,-5.003571033477783,8.736507415771484,-1.32806396484375,0
1664742,2024-02-06 10:16:05.827766,-5.271576404571533,8.93272590637207,-0.5527617931365967,0
1664818,2024-02-06 10:16:05.902088,-5.580261707305908,7.456301689147949,0.26800569891929626,0
1664894,2024-02-06 10:16:05.977689,-5.075357913970947,6.7408223152160645,-0.38525819778442383,0
1664971,2024-02-06 10:16:06.052767,-4.931783676147461,6.922683238983154,-0.2632198929786682,0
1665047,2024-02-06 10:16:06.127814,-5.302684307098389,7.686020851135254,-0.6389064788818359,0
1665124,2024-02-06 10:16:06.202829,-4.7666730880737305,8.83700942993164,-1.0600582361221313,0
1665201,2024-02-06 10:16:06.277597,-5.690335273742676,10.995412826538086,-1.3926725387573242,0
1665277,2024-02-06 10:16:06.352765,-5.242861747741699,10.794408798217773,-0.021536173298954964,0
1665353,2024-02-06 10:16:06.427765,-3.0868513584136963,9.105015754699707,0.23450499773025513,0
1665430,2024-02-06 10:16:06.517789,-2.4407663345336914,6.934647560119629,1.8162171840667725,0
1665506,2024-02-06 10:16:06.592710,-2.172760486602783,7.800880432128906,2.9528486728668213,0
1665583,2024-02-06 10:16:06.667751,-2.4766597747802734,8.217246055603027,2.249333620071411,0
1665660,2024-02-06 10:16:06.742791,-2.206261157989502,9.143301963806152,1.7300724983215332,0
1665736,2024-02-06 10:16:06.817608,-1.0552724599838257,8.975798606872559,2.536482572555542,0
1665812,2024-02-06 10:16:06.892781,0.509689450263977,9.789386749267578,3.05574369430542,0
1665889,2024-02-06 10:16:06.967750,-0.11007377505302429,11.05044937133789,1.8640754222869873,0
1665965,2024-02-06 10:16:07.042399,1.651106595993042,9.049978256225586,3.6922571659088135,0
1666041,2024-02-06 10:16:07.117851,-0.18903973698616028,8.83700942993164,1.7205009460449219,0
1666118,2024-02-06 10:16:07.192004,0.9858781099319458,10.564689636230469,3.259140729904175,0
1666195,2024-02-06 10:16:07.282760,0.9284483194351196,8.612075805664062,2.8714897632598877,0
1666272,2024-02-06 10:16:07.357801,0.7609447836875916,9.255768775939941,3.4122869968414307,0
1666348,2024-02-06 10:16:07.447611,0.48815324902534485,9.380199432373047,2.732701063156128,0
1666424,2024-02-06 10:16:07.507037,-0.06460852175951004,9.767850875854492,2.5125534534454346,0
1666501,2024-02-06 10:16:07.582594,-0.1507532149553299,9.346698760986328,2.431194543838501,0
1666578,2024-02-06 10:16:07.657548,0.13639576733112335,9.612311363220215,2.6178414821624756,0
1666654,2024-02-06 10:16:07.732021,0.3924369215965271,9.126551628112793,1.8138242959976196,0
1666731,2024-02-06 10:16:07.807749,0.13878867030143738,8.93272590637207,1.739644169807434,0
1666807,2024-02-06 10:16:07.882785,-0.35654330253601074,9.4950590133667,2.8714897632598877,0
1666883,2024-02-06 10:16:07.957765,0.12921704351902008,8.930333137512207,3.7257578372955322,0
1666960,2024-02-06 10:16:08.047757,0.2512553632259369,8.274676322937012,2.584340810775757,0
1667037,2024-02-06 10:16:08.122581,0.39961564540863037,9.892282485961914,5.113644599914551,0
1667113,2024-02-06 10:16:08.197776,0.7418015003204346,8.657541275024414,5.037071704864502,0
1667190,2024-02-06 10:16:08.272576,-0.1603248417377472,8.16699504852295,4.989213466644287,0
1667266,2024-02-06 10:16:08.347769,0.2727915346622467,8.607290267944336,5.271576404571533,0
1667342,2024-02-06 10:16:08.422573,0.3924369215965271,8.018634796142578,3.9602627754211426,0
1667419,2024-02-06 10:16:08.497536,-0.7800880670547485,8.322534561157227,3.015064239501953,0
1667496,2024-02-06 10:16:08.572562,0.016750356182456017,10.753728866577148,4.276126861572266,0
1667572,2024-02-06 10:16:08.647741,-0.12203831225633621,7.843952655792236,2.8212387561798096,0
1667649,2024-02-06 10:16:08.722552,-0.007178724277764559,8.564218521118164,4.864782333374023,0
1667725,2024-02-06 10:16:08.812673,-0.0502510704100132,7.724307537078857,6.515888690948486,0
1667801,2024-02-06 10:16:08.887882,0.1005021408200264,5.900911331176758,6.82218074798584,0
1667878,2024-02-06 10:16:08.962746,-0.23689790070056915,5.975091457366943,6.539817810058594,0
1667955,2024-02-06 10:16:09.037878,-0.8901618123054504,5.374471664428711,7.092579364776611,0
1668031,2024-02-06 10:16:09.112724,-0.7800880670547485,4.216303825378418,7.985134124755859,0
1668108,2024-02-06 10:16:09.187815,-1.306527853012085,4.431665897369385,8.22203254699707,0
1668184,2024-02-06 10:16:09.262735,-1.1605603694915771,3.261533737182617,8.915975570678711,0
1668260,2024-02-06 10:16:09.337761,-1.2060257196426392,2.713557720184326,9.514202117919922,0
1668337,2024-02-06 10:16:09.412739,0.25843408703804016,2.2038683891296387,9.423272132873535,0
1668414,2024-02-06 10:16:09.487788,-0.9308412671089172,1.591283917427063,13.433786392211914,0
1668490,2024-02-06 10:16:09.577725,-0.22493335604667664,-1.552997350692749,9.696063995361328,0
1668567,2024-02-06 10:16:09.652737,-0.35893622040748596,-1.5482115745544434,8.303391456604004,0
1668643,2024-02-06 10:16:09.727742,0.284756064414978,-1.7085363864898682,8.286641120910645,0
1668719,2024-02-06 10:16:09.802985,0.5575475692749023,0.22732627391815186,8.978191375732422,0
1668796,2024-02-06 10:16:09.877849,0.6819788217544556,0.014357448555529118,10.660405158996582,0
1668873,2024-02-06 10:16:09.952729,0.40679436922073364,-1.612820029258728,9.906639099121094,0
1668949,2024-02-06 10:16:10.027733,0.009571632370352745,-0.952377438545227,8.662327766418457,0
1669026,2024-02-06 10:16:10.102779,0.8734114766120911,0.08135887235403061,9.172017097473145,0
1669102,2024-02-06 10:16:10.177724,-0.5001177787780762,-0.7250511646270752,9.92099666595459,0
1669178,2024-02-06 10:16:10.252741,-0.31586387753486633,-1.3208853006362915,10.17464542388916,0
1669255,2024-02-06 10:16:10.342746,-0.009571632370352745,0.5001177787780762,9.320377349853516,0
1669332,2024-02-06 10:16:10.417811,0.30629223585128784,-0.2895418703556061,10.004748344421387,0
1669408,2024-02-06 10:16:10.492711,0.18903973698616028,-0.6915504336357117,9.518988609313965,0
1669485,2024-02-06 10:16:10.567526,-0.16271774470806122,-0.6389064788818359,9.727170944213867,0
1669561,2024-02-06 10:16:10.642703,-0.02632198855280876,-0.806410014629364,9.538131713867188,0
1669637,2024-02-06 10:16:10.717040,0.12682412564754486,-1.170132040977478,9.530953407287598,0
1669714,2024-02-06 10:16:10.792712,0.2225404530763626,-0.8040171265602112,9.686491966247559,0
1669791,2024-02-06 10:16:10.867733,0.13400284945964813,-0.7394086122512817,9.849209785461426,0
1669867,2024-02-06 10:16:10.943240,-0.03110780566930771,-0.8805902004241943,9.693670272827148,0
1669944,2024-02-06 10:16:11.018148,-0.007178724277764559,-0.758551836013794,9.593168258666992,0
1670020,2024-02-06 10:16:11.108144,-0.0909305065870285,-0.9786993861198425,9.82767391204834,0
1670097,2024-02-06 10:16:11.182758,0.1411815732717514,-0.2919347882270813,9.84203052520752,0
1670173,2024-02-06 10:16:11.257768,-0.08614469319581985,-1.0241646766662598,10.026285171508789,0
1670250,2024-02-06 10:16:11.332740,0.14836029708385468,-0.2105759084224701,10.217717170715332,0
1670327,2024-02-06 10:16:11.407032,-0.1411815732717514,-0.6436922550201416,10.715442657470703,0
1670403,2024-02-06 10:16:11.482694,-0.31586387753486633,-1.0839873552322388,10.122001647949219,0
1670479,2024-02-06 10:16:11.557541,-0.10289505124092102,-1.237133502960205,9.590775489807129,0
1670556,2024-02-06 10:16:11.632632,-0.14357449114322662,-0.2632198929786682,9.679313659667969,0
1670632,2024-02-06 10:16:11.707708,0.021536173298954964,0.29911351203918457,10.390007019042969,0
1670708,2024-02-06 10:16:11.782396,-0.0909305065870285,0.3732936680316925,10.863802909851074,0
1670785,2024-02-06 10:16:11.872479,0.12921704351902008,1.1342384815216064,9.55009651184082,0
1670862,2024-02-06 10:16:11.947698,-0.363722026348114,1.4381377696990967,9.791779518127441,0
1670938,2024-02-06 10:16:12.022576,-0.34936457872390747,1.2897775173187256,9.140909194946289,0
1671015,2024-02-06 10:16:12.097684,-0.3421858549118042,2.1057591438293457,9.337127685546875,0
1671091,2024-02-06 10:16:12.187629,-0.29672059416770935,2.5699832439422607,8.813080787658691,0
1671167,2024-02-06 10:16:12.247574,-1.0289504528045654,2.7997024059295654,8.339284896850586,0
1671244,2024-02-06 10:16:12.322652,-1.5099250078201294,3.3572499752044678,9.140909194946289,0
1671321,2024-02-06 10:16:12.397528,-1.9502201080322266,3.7066147327423096,9.042799949645996,0
1671397,2024-02-06 10:16:12.472474,-1.6247845888137817,3.9506912231445312,8.600111961364746,0
1671474,2024-02-06 10:16:12.547741,-2.03157901763916,3.9578700065612793,7.860702991485596,0
1671550,2024-02-06 10:16:12.637695,-2.0818300247192383,5.4342942237854,8.348855972290039,0
1671626,2024-02-06 10:16:12.712529,-1.2921704053878784,6.41538667678833,8.509181022644043,0
1671703,2024-02-06 10:16:12.787834,-1.1007376909255981,6.006199359893799,7.236154079437256,0
1671780,2024-02-06 10:16:12.862692,-1.3160994052886963,5.812373638153076,6.786287307739258,0
1671856,2024-02-06 10:16:12.937753,-1.0409150123596191,7.138044834136963,6.046878814697266,0
1671933,2024-02-06 10:16:13.027503,-0.36611494421958923,7.018399238586426,5.721443176269531,0
1672009,2024-02-06 10:16:13.087733,-0.8973405361175537,8.15024471282959,5.321827411651611,0
1672085,2024-02-06 10:16:13.162679,-1.074415683746338,8.317748069763184,4.187589168548584,0
1672162,2024-02-06 10:16:13.237483,-0.6221560835838318,9.102622032165527,4.137338161468506,0
1672239,2024-02-06 10:16:13.327699,-0.29911351203918457,8.738900184631348,3.3261423110961914,0
1672315,2024-02-06 10:16:13.387732,-0.4211518168449402,9.258161544799805,3.603719472885132,0
1672392,2024-02-06 10:16:13.477698,-0.26561281085014343,9.332341194152832,2.6944146156311035,0
1672468,2024-02-06 10:16:13.552619,-0.24886244535446167,9.346698760986328,1.93586266040802,0
1672544,2024-02-06 10:16:13.627703,-0.059822700917720795,9.212696075439453,1.718108057975769,0
1672621,2024-02-06 10:16:13.702679,-0.9475916028022766,9.351485252380371,1.043307900428772,0
1672698,2024-02-06 10:16:13.777042,-1.1055235862731934,9.887495994567871,1.622391700744629,0
1672775,2024-02-06 10:16:13.852671,-0.6987291574478149,9.72238540649414,2.03157901763916,0
1672851,2024-02-06 10:16:13.927466,-0.6412993669509888,9.456772804260254,1.6702498197555542,0
1672927,2024-02-06 10:16:14.002680,-0.5288326740264893,9.459165573120117,1.0911661386489868,0
1673004,2024-02-06 10:16:14.092724,-0.8470894694328308,9.64341926574707,2.093794584274292,0
1673081,2024-02-06 10:16:14.152390,-1.131845474243164,9.069121360778809,2.605876922607422,0
1673157,2024-02-06 10:16:14.242681,-1.148595929145813,9.538131713867188,3.189746379852295,0
1673234,2024-02-06 10:16:14.317679,-1.531461238861084,9.128944396972656,3.6587564945220947,0
1673310,2024-02-06 10:16:14.392675,-1.928683876991272,8.882474899291992,3.7903664112091064,0
1673386,2024-02-06 10:16:14.467668,-1.8497179746627808,8.552253723144531,3.5534684658050537,0
1673463,2024-02-06 10:16:14.542666,-1.6487137079238892,9.002120018005371,3.3476784229278564,0
1673540,2024-02-06 10:16:14.617754,-1.844932198524475,9.36823558807373,4.046407699584961,0
1673616,2024-02-06 10:16:14.692670,-1.9215052127838135,8.547467231750488,3.5151820182800293,0
1673693,2024-02-06 10:16:14.767667,-2.0124356746673584,9.595561027526855,4.328770637512207,0
1673769,2024-02-06 10:16:14.857665,-0.5360113978385925,8.889653205871582,2.47426700592041,0
1673845,2024-02-06 10:16:14.917565,-0.20818300545215607,10.610154151916504,2.8260245323181152,0
1673922,2024-02-06 10:16:15.007711,-0.7561589479446411,10.734585762023926,3.6731138229370117,0
1673999,2024-02-06 10:16:15.082678,-0.44986671209335327,12.258868217468262,3.330928087234497,0
1674075,2024-02-06 10:16:15.157768,-0.31825676560401917,5.585047721862793,2.2373690605163574,0
1674152,2024-02-06 10:16:15.247539,-4.6757426261901855,7.446730136871338,3.2782840728759766,0
1674228,2024-02-06 10:16:15.307139,-2.677664041519165,8.384750366210938,4.252197742462158,0
1674304,2024-02-06 10:16:15.382663,-3.479288339614868,8.097600936889648,5.017928123474121,0
1674381,2024-02-06 10:16:15.457680,-3.890868663787842,8.286641120910645,3.4888598918914795,0
1674458,2024-02-06 10:16:15.532308,-2.3641932010650635,8.092815399169922,3.204103946685791,0
1674534,2024-02-06 10:16:15.622643,-5.424722671508789,6.743215084075928,4.422094345092773,0
1674611,2024-02-06 10:16:15.681956,-5.273969650268555,6.8891825675964355,4.5991692543029785,0
1674687,2024-02-06 10:16:15.771951,-5.180645942687988,5.541975021362305,4.0224785804748535,0
1674763,2024-02-06 10:16:15.847661,-5.254826068878174,5.731014728546143,4.108623027801514,0
1674840,2024-02-06 10:16:15.922303,-5.175860404968262,6.879610538482666,4.228268623352051,0
1674916,2024-02-06 10:16:15.996990,-5.4845452308654785,6.288562297821045,3.809509754180908,0
1674993,2024-02-06 10:16:16.072496,-6.37949275970459,6.860467433929443,3.5582542419433594,0
1675070,2024-02-06 10:16:16.147683,-5.879374980926514,6.994470119476318,2.8571321964263916,0
1675146,2024-02-06 10:16:16.222469,-6.85807466506958,7.671663284301758,1.897576093673706,0
1675222,2024-02-06 10:16:16.297510,-5.329006195068359,9.64581298828125,1.0696299076080322,0
1675299,2024-02-06 10:16:16.372481,-4.776244640350342,10.033463478088379,0.30629223585128784,0
1675375,2024-02-06 10:16:16.447637,-2.8978116512298584,8.927940368652344,0.5192610621452332,0
1675452,2024-02-06 10:16:16.537692,-1.0337363481521606,7.719521522521973,-1.1533817052841187,0
1675529,2024-02-06 10:16:16.612577,-1.8210030794143677,8.901618003845215,-1.9238981008529663,0
1675605,2024-02-06 10:16:16.686933,-2.3929080963134766,8.389535903930664,-1.7851094007492065,0
1675681,2024-02-06 10:16:16.761937,0.284756064414978,13.397891998291016,-6.185667514801025,0
1675758,2024-02-06 10:16:16.836978,-3.027028799057007,11.878396034240723,-6.67621374130249,0
1675834,2024-02-06 10:16:16.927158,-1.0863802433013916,9.459165573120117,-6.401029109954834,0
1675911,2024-02-06 10:16:16.987721,-0.09332341700792313,8.329712867736816,-7.0160064697265625,0
1675988,2024-02-06 10:16:17.062688,0.5455830693244934,8.339284896850586,-6.470423698425293,0
1676064,2024-02-06 10:16:17.152476,-0.4044014811515808,8.0736722946167,-7.336656093597412,0
1676141,2024-02-06 10:16:17.227687,-0.4307234585285187,7.6692705154418945,-7.384514331817627,0
1676217,2024-02-06 10:16:17.302671,-0.3326142132282257,7.463480472564697,-7.044721603393555,0
1676293,2024-02-06 10:16:17.376839,-0.15793193876743317,7.30076265335083,-6.37949275970459,0
1676370,2024-02-06 10:16:17.452461,0.23689790070056915,7.88223934173584,-6.192846298217773,0
1676447,2024-02-06 10:16:17.526943,-0.10528795421123505,7.635769844055176,-5.3146491050720215,0
1676523,2024-02-06 10:16:17.601931,-0.8638398051261902,6.530246257781982,-4.249804973602295,0
1676600,2024-02-06 10:16:17.676929,-0.746587336063385,6.546996593475342,-3.5080032348632812,0
1676676,2024-02-06 10:16:17.752276,-0.18903973698616028,7.64773416519165,-3.436216115951538,0
1676752,2024-02-06 10:16:17.826912,-0.6915504336357117,8.798723220825195,-1.5553902387619019,0
1676829,2024-02-06 10:16:17.917693,0.7346227765083313,8.236390113830566,-0.5503688454627991,0
1676906,2024-02-06 10:16:17.977040,0.7178724408149719,9.095443725585938,0.363722026348114,0
1676982,2024-02-06 10:16:18.067573,0.806410014629364,9.858781814575195,0.6054057478904724,0
1677059,2024-02-06 10:16:18.142315,0.339792937040329,9.373021125793457,0.8040171265602112,0
1677135,2024-02-06 10:16:18.217309,0.6556568145751953,9.083478927612305,0.9858781099319458,0
1677211,2024-02-06 10:16:18.292527,0.619763195514679,9.363449096679688,1.1820966005325317,0
1677288,2024-02-06 10:16:18.367628,1.1342384815216064,9.46155834197998,1.485995888710022,0
1677365,2024-02-06 10:16:18.442578,0.8423036336898804,9.47113037109375,1.8329676389694214,0
1677441,2024-02-06 10:16:18.516861,1.0026284456253052,9.65299129486084,2.0698654651641846,0
1677518,2024-02-06 10:16:18.592628,0.382865309715271,10.681941986083984,2.0626866817474365,0
1677594,2024-02-06 10:16:18.682659,-1.4118157625198364,9.349091529846191,1.1868823766708374,0
1677670,2024-02-06 10:16:18.757640,-0.8494823575019836,9.765458106994629,1.7683590650558472,0
1677747,2024-02-06 10:16:18.832504,-0.6652284264564514,9.03562068939209,1.876039981842041,0
1677824,2024-02-06 10:16:18.907043,-0.8901618123054504,9.274911880493164,2.1392598152160645,0
1677900,2024-02-06 10:16:18.982665,-1.237133502960205,9.341913223266602,2.634591817855835,0
1677977,2024-02-06 10:16:19.057658,-1.4572809934616089,9.119372367858887,2.5556259155273438,0
1678053,2024-02-06 10:16:19.132502,-1.3137065172195435,9.093050956726074,2.6441633701324463,0
1678129,2024-02-06 10:16:19.207618,-1.179703712463379,9.085871696472168,2.3713719844818115,0
1678206,2024-02-06 10:16:19.282610,-1.5577831268310547,9.126551628112793,2.5532329082489014,0
1678283,2024-02-06 10:16:19.357642,-1.2514909505844116,9.148087501525879,2.6298060417175293,0
1678359,2024-02-06 10:16:19.447613,-1.1988469362258911,9.095443725585938,2.8619179725646973,0
1678436,2024-02-06 10:16:19.522435,-0.3948298394680023,9.30601978302002,4.000942230224609,0
1678512,2024-02-06 10:16:19.612700,-0.6269419193267822,10.543152809143066,2.9672060012817383,0
1678588,2024-02-06 10:16:19.672410,-1.012200117111206,10.399578094482422,2.6537351608276367,0
1678665,2024-02-06 10:16:19.747645,0.5312256217002869,9.105015754699707,1.9095406532287598,0
1678742,2024-02-06 10:16:19.822461,0.540797233581543,8.186138153076172,1.1677391529083252,0
1678818,2024-02-06 10:16:19.897677,0.569512128829956,10.026285171508789,1.5290682315826416,0
1678895,2024-02-06 10:16:19.972462,0.05742979422211647,10.004748344421387,2.1823322772979736,0
1678971,2024-02-06 10:16:20.047669,0.8088029623031616,8.83700942993164,1.6319633722305298,0
1679047,2024-02-06 10:16:20.122417,1.5099250078201294,9.71520709991455,1.7205009460449219,0
1679124,2024-02-06 10:16:20.242591,0.509689450263977,9.10740852355957,1.6271774768829346,0
1679201,2024-02-06 10:16:20.287457,-0.06460852175951004,9.593168258666992,1.612820029258728,0
1679277,2024-02-06 10:16:20.362626,0.12921704351902008,9.751100540161133,1.5051392316818237,0
1679354,2024-02-06 10:16:20.437707,-0.708300769329071,10.172252655029297,2.28283429145813,0
1679430,2024-02-06 10:16:20.512112,0.07657305896282196,11.797037124633789,1.6487137079238892,0
1679507,2024-02-06 10:16:20.587674,-0.3206496834754944,9.363449096679688,1.4453164339065552,0
1679583,2024-02-06 10:16:20.661868,-0.5264397859573364,7.159581184387207,-0.028714897111058235,0
1679660,2024-02-06 10:16:20.736907,-0.4833674430847168,10.468973159790039,2.6728782653808594,0
1679737,2024-02-06 10:16:20.812344,-0.461831271648407,9.408914566040039,3.3979294300079346,0
1679813,2024-02-06 10:16:20.887666,-1.1462029218673706,8.382356643676758,2.1679747104644775,0
1679889,2024-02-06 10:16:20.977178,-1.2658483982086182,9.380199432373047,2.256512403488159,0
1679966,2024-02-06 10:16:21.052550,-0.5503688454627991,9.162445068359375,2.7638089656829834,0
1680042,2024-02-06 10:16:21.127634,-0.983485221862793,8.982976913452148,1.964577555656433,0
1680119,2024-02-06 10:16:21.202490,-1.3687434196472168,9.325162887573242,2.0914015769958496,0
1680196,2024-02-06 10:16:21.277624,-0.8638398051261902,9.116979598999023,2.7925238609313965,0
1680272,2024-02-06 10:16:21.352488,-0.30629223585128784,11.363920211791992,1.3543859720230103,0
1680348,2024-02-06 10:16:21.427605,-0.17468228936195374,12.112900733947754,1.7372512817382812,0
1680425,2024-02-06 10:16:21.502458,0.6269419193267822,9.133729934692383,-0.0909305065870285,0
1680501,2024-02-06 10:16:21.577593,1.5745335817337036,7.611840724945068,-0.2010042816400528,0
1680578,2024-02-06 10:16:21.652610,0.23689790070056915,11.301705360412598,0.8758043646812439,0
1680655,2024-02-06 10:16:21.742616,1.3041349649429321,7.585518836975098,1.7252867221832275,0
1680731,2024-02-06 10:16:21.817584,0.1005021408200264,10.002355575561523,1.7133221626281738,0
1680807,2024-02-06 10:16:21.892627,0.08614469319581985,10.160287857055664,2.4048726558685303,0
1680884,2024-02-06 10:16:21.967588,0.03350071236491203,9.21030330657959,1.131845474243164,0
1680960,2024-02-06 10:16:22.042598,-1.7037506103515625,10.686727523803711,1.8521108627319336,0
1681037,2024-02-06 10:16:22.117607,-0.0909305065870285,11.268203735351562,2.5532329082489014,0
1681114,2024-02-06 10:16:22.192361,-1.0361292362213135,6.51828145980835,0.6867645978927612,0
1681190,2024-02-06 10:16:22.267579,0.3732936680316925,10.478544235229492,1.6702498197555542,0
1681266,2024-02-06 10:16:22.342600,-0.8518753051757812,8.762829780578613,2.4981961250305176,0
1681343,2024-02-06 10:16:22.417670,-1.3687434196472168,8.23878288269043,2.833203077316284,0
1681419,2024-02-06 10:16:22.507430,-1.2945632934570312,9.004512786865234,3.2064969539642334,0
1681496,2024-02-06 10:16:22.581843,-1.7013576030731201,8.552253723144531,2.3857293128967285,0
1681573,2024-02-06 10:16:22.657585,-1.1892752647399902,9.545310020446777,3.070101022720337,0
1681649,2024-02-06 10:16:22.732643,1.4381377696990967,11.720463752746582,-0.3732936680316925,0
1681725,2024-02-06 10:16:22.807574,0.8207674622535706,13.182530403137207,-0.04307234659790993,0
1681802,2024-02-06 10:16:22.882573,2.1057591438293457,8.573789596557617,0.5934411883354187,0
1681878,2024-02-06 10:16:22.956818,1.8497179746627808,8.090422630310059,0.4642241597175598,0
1681955,2024-02-06 10:16:23.047583,1.8497179746627808,9.078693389892578,0.6341206431388855,0
1682032,2024-02-06 10:16:23.107093,1.0935590267181396,9.191160202026367,1.2849916219711304,0
1682108,2024-02-06 10:16:23.182612,0.20579010248184204,9.361056327819824,1.7851094007492065,0
1682184,2024-02-06 10:16:23.287527,0.5814766883850098,8.947083473205566,2.359407424926758,0
1682261,2024-02-06 10:16:23.346856,0.8805902004241943,9.20073127746582,2.045936346054077,0
1682337,2024-02-06 10:16:23.421847,0.5431901216506958,9.691277503967285,2.529303789138794,0
1682414,2024-02-06 10:16:23.496908,-0.9428057670593262,13.476858139038086,2.768594741821289,0
1682491,2024-02-06 10:16:23.572427,0.8758043646812439,10.358899116516113,1.0983448028564453,0
1682567,2024-02-06 10:16:23.647586,-1.0552724599838257,5.223718166351318,0.3948298394680023,0
1682644,2024-02-06 10:16:23.722366,1.306527853012085,12.074614524841309,1.7540016174316406,0
1682720,2024-02-06 10:16:23.812584,1.464459776878357,8.817866325378418,2.4000868797302246,0
1682796,2024-02-06 10:16:23.872455,-0.15793193876743317,8.695828437805176,2.1249024868011475,0
1682873,2024-02-06 10:16:23.948847,-0.5814766883850098,9.29644775390625,2.3713719844818115,0
1682950,2024-02-06 10:16:24.037238,-0.46900999546051025,8.992548942565918,2.579555034637451,0
1683026,2024-02-06 10:16:24.112679,-0.3206496834754944,9.361056327819824,2.6585209369659424,0
1683103,2024-02-06 10:16:24.188002,-0.08853759616613388,9.497451782226562,2.979170560836792,0
1683179,2024-02-06 10:16:24.262354,1.179703712463379,9.832459449768066,3.886082649230957,0
1683255,2024-02-06 10:16:24.336836,0.2919347882270813,11.782679557800293,0.25604116916656494,0
1683332,2024-02-06 10:16:24.412590,0.7705163955688477,8.284247398376465,-1.2778129577636719,0
1683409,2024-02-06 10:16:24.487586,1.4716384410858154,7.544839382171631,-0.1507532149553299,0
1683485,2024-02-06 10:16:24.561897,0.7178724408149719,10.746550559997559,0.806410014629364,0
1683562,2024-02-06 10:16:24.637389,1.8042527437210083,8.978191375732422,0.9475916028022766,0
1683638,2024-02-06 10:16:24.712392,0.7489802241325378,9.085871696472168,0.6843717098236084,0
1683714,2024-02-06 10:16:24.802570,-0.021536173298954964,9.57402515411377,1.560176134109497,0
1683791,2024-02-06 10:16:24.877559,0.5001177787780762,8.746079444885254,2.4120514392852783,0
1683868,2024-02-06 10:16:24.952577,0.9428057670593262,9.416092872619629,1.9837207794189453,0
1683944,2024-02-06 10:16:25.027371,0.42833054065704346,10.96430492401123,2.4838385581970215,0
1684021,2024-02-06 10:16:25.102583,1.5936768054962158,12.40483570098877,0.6843717098236084,0
1684097,2024-02-06 10:16:25.177567,-0.8734114766120911,6.546996593475342,0.2536482512950897,0
1684173,2024-02-06 10:16:25.251814,-0.15314611792564392,9.31319808959961,0.46661707758903503,0
1684250,2024-02-06 10:16:25.327562,-0.11725249886512756,10.60776138305664,1.9837207794189453,0
1684327,2024-02-06 10:16:25.402599,-0.9356270432472229,8.131101608276367,1.5721405744552612,0
1684403,2024-02-06 10:16:25.477597,-0.6341206431388855,9.485487937927246,2.141652822494507,0
1684480,2024-02-06 10:16:25.567439,-0.31586387753486633,8.738900184631348,2.4120514392852783,0
1684556,2024-02-06 10:16:25.642588,-0.8973405361175537,9.176802635192871,1.8257888555526733,0
1684632,2024-02-06 10:16:25.716864,0.8853759765625,10.27036190032959,3.316570520401001,0
1684709,2024-02-06 10:16:25.792584,0.41636601090431213,13.876474380493164,1.7851094007492065,0
1684786,2024-02-06 10:16:25.867541,1.141417145729065,10.385221481323242,0.588655412197113,0
1684863,2024-02-06 10:16:25.942366,1.8497179746627808,5.912876129150391,-0.09332341700792313,0
1684939,2024-02-06 10:16:26.017559,0.6245490312576294,10.447436332702637,0.6867645978927612,0
1685015,2024-02-06 10:16:26.092399,1.1988469362258911,9.55009651184082,1.1342384815216064,0
1685092,2024-02-06 10:16:26.167539,1.1557745933532715,8.722149848937988,1.6032484769821167,0
1685168,2024-02-06 10:16:26.242597,0.6436922550201416,9.56684684753418,1.6630711555480957,0
1685245,2024-02-06 10:16:26.332576,0.21775463223457336,9.152873039245605,2.024400234222412,0
1685322,2024-02-06 10:16:26.407372,0.5623334050178528,9.102622032165527,2.6369848251342773,0
1685398,2024-02-06 10:16:26.482562,-1.904754877090454,11.194024085998535,3.850189208984375,0
1685474,2024-02-06 10:16:26.557557,1.4788172245025635,13.543859481811523,1.6367491483688354,0
1685551,2024-02-06 10:16:26.632608,-1.3376356363296509,5.575475692749023,1.1653462648391724,0
1685627,2024-02-06 10:16:26.707544,-0.1005021408200264,10.392399787902832,1.6702498197555542,0
1685704,2024-02-06 10:16:26.782552,-0.4761887192726135,9.71520709991455,2.234976053237915,0
1685781,2024-02-06 10:16:26.857172,-1.141417145729065,7.8942036628723145,2.3067634105682373,0
1685857,2024-02-06 10:16:26.932379,-0.8853759765625,9.798958778381348,2.290013074874878,0
1685933,2024-02-06 10:16:27.007551,-0.9547703266143799,8.798723220825195,2.9145619869232178,0
1686010,2024-02-06 10:16:27.082557,-1.3687434196472168,9.449594497680664,2.5269110202789307,0
1686086,2024-02-06 10:16:27.172505,-0.22014755010604858,10.057393074035645,3.316570520401001,0
1686163,2024-02-06 10:16:27.247371,0.7753022313117981,8.356035232543945,2.802095413208008,0
1686240,2024-02-06 10:16:27.322357,-0.5503688454627991,11.466815948486328,-3.54150390625,0
1686316,2024-02-06 10:16:27.396812,0.1914326548576355,7.810451984405518,-0.6293348073959351,0
1686392,2024-02-06 10:16:27.471803,0.5192610621452332,9.215088844299316,0.4044014811515808,0
1686469,2024-02-06 10:16:27.546979,0.46900999546051025,11.323241233825684,0.45943835377693176,0
1686545,2024-02-06 10:16:27.622366,0.14836029708385468,8.9231538772583,0.7800880670547485,0
1686622,2024-02-06 10:16:27.696819,-0.2010042816400528,9.66256332397461,1.0361292362213135,0
1686699,2024-02-06 10:16:27.787493,0.12682412564754486,9.38259220123291,1.7516087293624878,0
1686775,2024-02-06 10:16:27.847211,0.7011220455169678,9.27969741821289,1.3711363077163696,0
1686851,2024-02-06 10:16:27.966833,0.8016242384910583,9.205517768859863,1.7875022888183594,0
1686928,2024-02-06 10:16:28.057003,1.3854937553405762,8.937511444091797,2.129688262939453,0
1687004,2024-02-06 10:16:28.087467,1.3687434196472168,8.542681694030762,2.739879846572876,0
1687081,2024-02-06 10:16:28.161752,-0.6030128598213196,13.02220630645752,1.6534994840621948,0
1687158,2024-02-06 10:16:28.237525,-2.4120514392852783,13.050920486450195,1.7276796102523804,0
1687234,2024-02-06 10:16:28.312407,-2.1799392700195312,7.973169803619385,-0.5479759573936462,0
1687310,2024-02-06 10:16:28.387643,-1.945434331893921,8.549860954284668,0.29911351203918457,0
1687387,2024-02-06 10:16:28.462578,-2.5245180130004883,8.908797264099121,0.8518753051757812,0
1687463,2024-02-06 10:16:28.537610,-1.2802058458328247,9.437629699707031,1.3902796506881714,0
1687540,2024-02-06 10:16:28.627568,-1.0337363481521606,9.516595840454102,1.5362470149993896,0
1687617,2024-02-06 10:16:28.702550,-0.7513731122016907,8.834616661071777,1.3974583148956299,0
1687693,2024-02-06 10:16:28.777506,-1.6104271411895752,9.282090187072754,1.9119335412979126,0
1687770,2024-02-06 10:16:28.852535,0.6245490312576294,12.289976119995117,1.8736470937728882,0
1687846,2024-02-06 10:16:28.927531,0.727444052696228,9.337127685546875,1.387886643409729,0
1687922,2024-02-06 10:16:29.002526,0.02632198855280876,7.810451984405518,0.4642241597175598,0
1687999,2024-02-06 10:16:29.077522,0.5790837407112122,11.445279121398926,0.7322298884391785,0
1688076,2024-02-06 10:16:29.152490,1.3208853006362915,8.530716896057129,1.3998512029647827,0
1688152,2024-02-06 10:16:29.227548,1.074415683746338,8.980584144592285,0.5623334050178528,0
1688229,2024-02-06 10:16:29.302542,1.6534994840621948,9.47113037109375,0.08614469319581985,0
1688305,2024-02-06 10:16:29.392522,2.0267932415008545,8.882474899291992,0.2129688262939453,0
1688381,2024-02-06 10:16:29.467528,2.1392598152160645,8.781972885131836,-0.0909305065870285,0
1688458,2024-02-06 10:16:29.542515,-0.028714897111058235,9.277304649353027,-0.619763195514679,0
1688535,2024-02-06 10:16:29.617313,-1.1270596981048584,11.124629974365234,-1.7540016174316406,0
1688611,2024-02-06 10:16:29.692386,-1.6152129173278809,11.13898754119873,-0.5742979645729065,0
1688688,2024-02-06 10:16:29.767514,-2.093794584274292,9.016477584838867,-1.0098072290420532,0
1688764,2024-02-06 10:16:29.842513,-0.8877689242362976,7.741057872772217,-1.426173210144043,0
1688840,2024-02-06 10:16:29.917514,-1.4572809934616089,6.939433574676514,-2.057900905609131,0
1688917,2024-02-06 10:16:29.992510,-1.8425391912460327,7.547232151031494,-3.218461275100708,0
1688994,2024-02-06 10:16:30.067344,-1.1270596981048584,8.770008087158203,-3.0653152465820312,0
1689070,2024-02-06 10:16:30.157496,-0.7226582169532776,8.22921085357666,-3.3117847442626953,0
1689147,2024-02-06 10:16:30.232537,0.5814766883850098,8.269890785217285,-3.555861473083496,0
1689223,2024-02-06 10:16:30.307371,-0.9260554313659668,8.743685722351074,-3.7616515159606934,0
1689299,2024-02-06 10:16:30.382526,-0.6915504336357117,10.540760040283203,-5.05142879486084,0
1689376,2024-02-06 10:16:30.457506,-0.48576033115386963,10.61733341217041,-5.123216152191162,0
1689453,2024-02-06 10:16:30.532637,-0.09332341700792313,8.052135467529297,-3.527146577835083,0
1689529,2024-02-06 10:16:30.607490,-0.5551546812057495,12.828380584716797,-5.697514057159424,0
1689606,2024-02-06 10:16:30.681765,-2.220618724822998,9.56684684753418,0.39004403352737427,0
1689682,2024-02-06 10:16:30.756810,0.20579010248184204,4.424487113952637,-1.868861198425293,0
1689758,2024-02-06 10:16:30.832367,-1.4070299863815308,9.56684684753418,-0.24886244535446167,0
1689835,2024-02-06 10:16:30.922449,-0.3948298394680023,10.763300895690918,2.957634449005127,0
1689912,2024-02-06 10:16:30.997529,-0.3924369215965271,6.669034957885742,3.5391111373901367,0
1689989,2024-02-06 10:16:31.087592,-1.3974583148956299,8.937511444091797,4.302448749542236,0
1690065,2024-02-06 10:16:31.147217,-0.9667348861694336,8.734114646911621,4.757101058959961,0
1690141,2024-02-06 10:16:31.222314,-0.4139730930328369,8.458930015563965,4.577633380889893,0
1690218,2024-02-06 10:16:31.297348,-0.15553902089595795,7.8032732009887695,4.781030178070068,0
1690294,2024-02-06 10:16:31.372302,-0.14836029708385468,8.621647834777832,4.9006757736206055,0
1690371,2024-02-06 10:16:31.447488,-0.0502510704100132,8.250746726989746,4.855210304260254,0
1690448,2024-02-06 10:16:31.522343,0.2321120798587799,8.241175651550293,5.065786361694336,0
1690524,2024-02-06 10:16:31.597514,0.4331163763999939,8.183745384216309,5.422329902648926,0
1690600,2024-02-06 10:16:31.687540,0.5719050168991089,7.956419467926025,5.106465816497803,0
1690677,2024-02-06 10:16:31.762512,0.5790837407112122,8.231603622436523,5.099287033081055,0
1690753,2024-02-06 10:16:31.837633,0.7561589479446411,8.22921085357666,5.075357913970947,0
1690830,2024-02-06 10:16:31.912352,0.7872667908668518,8.379963874816895,4.769065856933594,0
1690907,2024-02-06 10:16:31.987140,0.7729093432426453,8.461322784423828,4.651813507080078,0
1690983,2024-02-06 10:16:32.062510,0.8949476480484009,8.425429344177246,4.271340847015381,0
1691059,2024-02-06 10:16:32.137629,0.806410014629364,8.243568420410156,4.230661392211914,0
1691136,2024-02-06 10:16:32.212530,0.6269419193267822,8.676684379577637,3.3548572063446045,0
1691212,2024-02-06 10:16:32.287767,0.22732627391815186,10.193788528442383,2.677664041519165,0
1691289,2024-02-06 10:16:32.362507,-0.12682412564754486,9.346698760986328,2.0698654651641846,0
1691366,2024-02-06 10:16:32.451695,0.1914326548576355,9.791779518127441,1.3113136291503906,0
1691442,2024-02-06 10:16:32.526890,0.03828652948141098,9.782208442687988,0.6293348073959351,0
1691518,2024-02-06 10:16:32.602474,-0.3517574965953827,9.626668930053711,0.7202653288841248,0
1691595,2024-02-06 10:16:32.677466,-0.8710185289382935,9.63624095916748,0.8638398051261902,0
1691671,2024-02-06 10:16:32.752473,-0.8279461860656738,9.337127685546875,0.8925547003746033,0
1691748,2024-02-06 10:16:32.827452,0.03828652948141098,8.714971542358398,0.5719050168991089,0
1691825,2024-02-06 10:16:32.902364,-0.14596739411354065,8.913582801818848,0.07657305896282196,0
1691901,2024-02-06 10:16:32.976708,-0.007178724277764559,9.851602554321289,0.6700142621994019,0
1691977,2024-02-06 10:16:33.052492,-0.7944455146789551,9.791779518127441,-0.8470894694328308,0
1692054,2024-02-06 10:16:33.127103,-0.2416837215423584,8.564218521118164,-1.141417145729065,0
1692130,2024-02-06 10:16:33.217477,-1.0457007884979248,8.686256408691406,-3.352464199066162,0
1692207,2024-02-06 10:16:33.292482,-0.7226582169532776,9.246196746826172,-5.40797233581543,0
1692284,2024-02-06 10:16:33.367010,-1.2108114957809448,9.064335823059082,-7.1835103034973145,0
1692360,2024-02-06 10:16:33.442375,-1.229954719543457,8.300997734069824,-7.798487663269043,0
1692436,2024-02-06 10:16:33.517486,-0.7872667908668518,8.554646492004395,-7.891810894012451,0
1692513,2024-02-06 10:16:33.592518,-0.9858781099319458,7.34383487701416,-8.011456489562988,0
1692589,2024-02-06 10:16:33.667476,-0.7896596789360046,7.252904415130615,-8.092815399169922,0
1692666,2024-02-06 10:16:33.742462,-0.7154794931411743,7.884632110595703,-8.021027565002441,0
1692743,2024-02-06 10:16:33.817261,-1.1198810338974,8.360820770263672,-7.638162612915039,0
1692819,2024-02-06 10:16:33.907496,-0.9332341551780701,8.320141792297363,-7.207438945770264,0
1692895,2024-02-06 10:16:33.967457,-0.12443122267723083,9.160052299499512,-6.513495922088623,0
1692972,2024-02-06 10:16:34.057478,-0.007178724277764559,9.12415885925293,-7.004042148590088,0
1693048,2024-02-06 10:16:34.132508,-0.5431901216506958,8.454144477844238,-5.125608921051025,0
1693125,2024-02-06 10:16:34.207509,-0.44268798828125,8.22921085357666,-3.6802926063537598,0
1693202,2024-02-06 10:16:34.282472,0.14596739411354065,8.978191375732422,-3.218461275100708,0
1693278,2024-02-06 10:16:34.357490,-0.339792937040329,8.741292953491211,-2.065079689025879,0
1693354,2024-02-06 10:16:34.432471,-0.11007377505302429,8.365606307983398,-1.0145930051803589,0
1693431,2024-02-06 10:16:34.507478,-0.30868515372276306,7.915740013122559,-0.10528795421123505,0
1693507,2024-02-06 10:16:34.582488,0.27997025847435,8.15981674194336,0.765730619430542,0
1693583,2024-02-06 10:16:34.672434,-0.24886244535446167,8.647970199584961,1.0409150123596191,0
1693660,2024-02-06 10:16:34.731736,-0.964341938495636,7.817630767822266,1.0528795719146729,0
1693737,2024-02-06 10:16:34.822443,-1.1820966005325317,8.822651863098145,0.3732936680316925,0
1693813,2024-02-06 10:16:34.896721,-0.6365135312080383,9.174409866333008,1.9789350032806396,0
1693890,2024-02-06 10:16:34.972291,-0.8327320218086243,10.385221481323242,3.2423903942108154,0
1693966,2024-02-06 10:16:35.047511,-0.540797233581543,9.061943054199219,3.0054924488067627,0
1694042,2024-02-06 10:16:35.122291,-0.9308412671089172,8.58575439453125,2.5029819011688232,0
1694119,2024-02-06 10:16:35.197467,-0.9858781099319458,9.140909194946289,2.361800193786621,0
1694196,2024-02-06 10:16:35.272317,-1.3113136291503906,9.286876678466797,2.8284173011779785,0
1694272,2024-02-06 10:16:35.347447,-1.1246668100357056,9.404129028320312,2.7015931606292725,0
1694349,2024-02-06 10:16:35.437565,-0.9332341551780701,8.951869010925293,2.5125534534454346,0
1694425,2024-02-06 10:16:35.497081,-0.44986671209335327,9.346698760986328,3.239997625350952,0
1694502,2024-02-06 10:16:35.587573,-0.46661707758903503,10.416329383850098,1.2443121671676636,0
1694579,2024-02-06 10:16:35.661772,0.5144752264022827,11.797037124633789,2.1177237033843994,0
1694655,2024-02-06 10:16:35.736752,0.7441943883895874,8.42782211303711,1.1007376909255981,0
1694732,2024-02-06 10:16:35.812473,1.296956181526184,7.52569580078125,0.7035149931907654,0
1694808,2024-02-06 10:16:35.887337,1.6008554697036743,10.370863914489746,2.053115129470825,0
1694884,2024-02-06 10:16:35.977435,0.3924369215965271,9.944926261901855,2.2301902770996094,0
1694961,2024-02-06 10:16:36.052464,0.3804723918437958,8.578575134277344,2.1177237033843994,0
1695038,2024-02-06 10:16:36.112088,0.5958341360092163,8.899225234985352,2.1201164722442627,0
1695114,2024-02-06 10:16:36.202285,0.4211518168449402,9.119372367858887,2.8643109798431396,0
1695191,2024-02-06 10:16:36.262229,0.028714897111058235,9.157659530639648,2.6609137058258057,0
1695267,2024-02-06 10:16:36.352454,0.8758043646812439,9.64581298828125,2.3139421939849854,0
1695343,2024-02-06 10:16:36.427487,-1.5027462244033813,12.306726455688477,4.070336818695068,0
1695420,2024-02-06 10:16:36.501736,0.5719050168991089,11.52663803100586,0.9739136099815369,0
1695497,2024-02-06 10:16:36.577512,-1.3089207410812378,5.726229190826416,0.1914326548576355,0
1695573,2024-02-06 10:16:36.652377,-0.363722026348114,9.81092357635498,2.024400234222412,0
1695650,2024-02-06 10:16:36.727274,0.2727915346622467,10.870981216430664,2.4120514392852783,0
1695726,2024-02-06 10:16:36.802443,-0.5719050168991089,7.8726677894592285,2.416837215423584,0
1695802,2024-02-06 10:16:36.877503,-0.7513731122016907,9.023656845092773,2.416837215423584,0
1695879,2024-02-06 10:16:36.967469,-0.44268798828125,9.006906509399414,3.3189635276794434,0
1695956,2024-02-06 10:16:37.027532,-0.3038993179798126,8.994941711425781,3.027028799057007,0
1696032,2024-02-06 10:16:37.117886,-0.39961564540863037,9.294054985046387,3.058136463165283,0
1696109,2024-02-06 10:16:37.192237,0.4020085632801056,9.310805320739746,3.9889779090881348,0
1696185,2024-02-06 10:16:37.267104,0.7824809551239014,13.589324951171875,3.697042942047119,0
1696261,2024-02-06 10:16:37.342103,-0.009571632370352745,9.770243644714355,1.404637098312378,0
1696338,2024-02-06 10:16:37.417431,0.7537660598754883,5.9894490242004395,-0.27757734060287476,0
1696415,2024-02-06 10:16:37.492251,0.2416837215423584,11.131808280944824,1.4812101125717163,0
1696491,2024-02-06 10:16:37.567427,-0.04307234659790993,9.741528511047363,1.9406484365463257,0
1696568,2024-02-06 10:16:37.642419,0.7059078812599182,8.14306640625,2.1655819416046143,0
1696644,2024-02-06 10:16:37.731721,0.4115802049636841,9.581204414367676,2.1607959270477295,0
1696720,2024-02-06 10:16:37.791729,0.16511066257953644,9.073907852172852,2.565197467803955,0
1696797,2024-02-06 10:16:37.882446,0.06939433515071869,8.908797264099121,2.6680924892425537,0
1696874,2024-02-06 10:16:37.957327,0.18664683401584625,9.31319808959961,3.0246357917785645,0
1696950,2024-02-06 10:16:38.046687,-1.5577831268310547,9.935354232788086,3.8549749851226807,0
1697027,2024-02-06 10:16:38.106681,-0.18664683401584625,12.907346725463867,0.5072965025901794,0
1697103,2024-02-06 10:16:38.182401,-1.2538838386535645,7.164366722106934,1.3400285243988037,0
1697179,2024-02-06 10:16:38.257413,-0.7561589479446411,8.257925987243652,1.5027462244033813,0
1697256,2024-02-06 10:16:38.332298,0.15793193876743317,11.170095443725586,1.6152129173278809,0
1697333,2024-02-06 10:16:38.407424,-1.1294525861740112,8.269890785217285,1.8832186460494995,0
1697409,2024-02-06 10:16:38.497434,-0.5192610621452332,9.521381378173828,1.3639576435089111,0
1697486,2024-02-06 10:16:38.556891,-0.8111958503723145,9.83485221862793,1.739644169807434,0
1697562,2024-02-06 10:16:38.647510,-0.9978426694869995,9.624276161193848,1.8401463031768799,0
1697638,2024-02-06 10:16:38.722228,-1.777930736541748,9.688884735107422,1.3041349649429321,0
1697715,2024-02-06 10:16:38.797430,-1.5051392316818237,9.128944396972656,1.9262909889221191,0
1697791,2024-02-06 10:16:38.872207,-0.021536173298954964,10.691513061523438,1.7300724983215332,0
1697868,2024-02-06 10:16:38.947307,0.8279461860656738,9.990391731262207,0.6293348073959351,0
1697945,2024-02-06 10:16:39.022217,2.184725046157837,8.265104293823242,-0.09332341700792313,0
1698021,2024-02-06 10:16:39.097410,0.9116979837417603,9.583597183227539,0.07657305896282196,0
1698097,2024-02-06 10:16:39.172253,-0.05742979422211647,10.445043563842773,0.9547703266143799,0
1698174,2024-02-06 10:16:39.262278,1.524282455444336,9.6697416305542,1.591283917427063,0
1698250,2024-02-06 10:16:39.322206,1.3041349649429321,9.248589515686035,1.4955675601959229,0
1698327,2024-02-06 10:16:39.412402,1.2251689434051514,9.518988609313965,0.9954497814178467,0
1698404,2024-02-06 10:16:39.487473,1.3615647554397583,9.985605239868164,1.2849916219711304,0
1698480,2024-02-06 10:16:39.562395,1.6558923721313477,9.317984580993652,1.8497179746627808,0
1698556,2024-02-06 10:16:39.637543,1.2323477268218994,9.301233291625977,1.524282455444336,0
1698633,2024-02-06 10:16:39.712439,1.0576653480529785,9.437629699707031,2.0411505699157715,0
1698709,2024-02-06 10:16:39.787230,1.0169858932495117,9.291662216186523,2.2804415225982666,0
1698786,2024-02-06 10:16:39.862441,0.7418015003204346,9.270126342773438,2.47426700592041,0
1698863,2024-02-06 10:16:39.937561,-0.26800569891929626,10.918839454650879,2.558018684387207,0
1698939,2024-02-06 10:16:40.027290,0.5312256217002869,8.107172966003418,1.8880045413970947,0
1699016,2024-02-06 10:16:40.087395,1.9430413246154785,9.925783157348633,2.4694812297821045,0
1699092,2024-02-06 10:16:40.177404,-0.25604116916656494,8.265104293823242,2.4623024463653564,0
1699168,2024-02-06 10:16:40.252421,-0.38525819778442383,10.110036849975586,3.2639267444610596,0
1699245,2024-02-06 10:16:40.327312,-1.05048668384552,8.813080787658691,3.027028799057007,0
1699322,2024-02-06 10:16:40.402412,-0.8183745741844177,8.322534561157227,2.8284173011779785,0
1699398,2024-02-06 10:16:40.477394,-0.9284483194351196,9.004512786865234,3.3979294300079346,0
1699475,2024-02-06 10:16:40.552404,-0.8040171265602112,8.564218521118164,3.9315478801727295,0
1699551,2024-02-06 10:16:40.627294,-0.3421858549118042,8.7843656539917,3.261533737182617,0
1699627,2024-02-06 10:16:40.701698,0.22971917688846588,9.255768775939941,3.3117847442626953,0
1699704,2024-02-06 10:16:40.791683,0.7609447836875916,9.66256332397461,3.8669395446777344,0
1699781,2024-02-06 10:16:40.867415,-1.7516087293624878,11.971718788146973,0.3732936680316925,0
1699857,2024-02-06 10:16:40.942210,1.0002355575561523,9.473523139953613,1.1725249290466309,0
1699934,2024-02-06 10:16:41.017416,0.9380199909210205,6.8126091957092285,-0.15553902089595795,0
1700010,2024-02-06 10:16:41.092422,-0.11485958844423294,10.612546920776367,-0.3732936680316925,0
1700086,2024-02-06 10:16:41.182434,1.5410327911376953,9.31319808959961,0.2010042816400528,0
1700163,2024-02-06 10:16:41.242022,1.2514909505844116,8.710185050964355,-0.600619912147522,0
1700240,2024-02-06 10:16:41.317234,0.9978426694869995,7.784130096435547,-1.6415349245071411,0
1700316,2024-02-06 10:16:41.392338,1.5266753435134888,6.551782131195068,-2.172760486602783,0
1700393,2024-02-06 10:16:41.467275,0.727444052696228,3.697042942047119,-2.354621648788452,0
1700469,2024-02-06 10:16:41.557380,-0.8207674622535706,3.1299238204956055,-5.264397621154785,0
1700545,2024-02-06 10:16:41.632451,-1.1940611600875854,7.494588375091553,-6.290955543518066,0
1700622,2024-02-06 10:16:41.707399,-0.2512553632259369,7.8726677894592285,-6.295741081237793,0
1700699,2024-02-06 10:16:41.781990,-1.0935590267181396,8.119136810302734,-6.281383514404297,0
1700775,2024-02-06 10:16:41.857384,-3.4170727729797363,7.3175129890441895,-9.925783157348633,0
1700852,2024-02-06 10:16:41.932417,-3.015064239501953,6.453673362731934,-10.765693664550781,0
1700928,2024-02-06 10:16:42.007435,-7.8654890060424805,9.181588172912598,-11.981290817260742,0
1701004,2024-02-06 10:16:42.082363,-6.506317138671875,7.8726677894592285,-6.697749614715576,1
1701081,2024-02-06 10:16:42.157378,-1.8640754222869873,11.375885009765625,-8.755650520324707,1
1701158,2024-02-06 10:16:42.232434,-10.1578950881958,19.121728897094727,-5.872196674346924,1
1701234,2024-02-06 10:16:42.322214,2.1320810317993164,1.426173210144043,-3.929155111312866,1
1701311,2024-02-06 10:16:42.397375,0.8183745741844177,7.879846572875977,6.472816467285156,1
1701387,2024-02-06 10:16:42.472267,1.8880045413970947,5.108858585357666,6.726464748382568,1
1701463,2024-02-06 10:16:42.547423,0.5719050168991089,5.735800743103027,8.511573791503906,1
1701540,2024-02-06 10:16:42.622214,-1.464459776878357,3.792759418487549,8.734114646911621,1
1701617,2024-02-06 10:16:42.697348,-0.22493335604667664,4.632669925689697,9.997570037841797,1
1701694,2024-02-06 10:16:42.772187,-1.3113136291503906,4.2330546379089355,9.45438003540039,1
1701770,2024-02-06 10:16:42.847351,-0.7106937170028687,3.5534684658050537,8.652755737304688,1
1701846,2024-02-06 10:16:42.922178,-0.43790218234062195,2.7231295108795166,9.339520454406738,1
1701923,2024-02-06 10:16:42.997368,-1.2921704053878784,-1.6008554697036743,10.217717170715332,1
1702000,2024-02-06 10:16:43.087510,-0.6245490312576294,0.23450499773025513,11.622354507446289,1
1702076,2024-02-06 10:16:43.162352,-0.2129688262939453,0.461831271648407,10.81594467163086,1
1702153,2024-02-06 10:16:43.237361,-0.01914326474070549,1.777930736541748,9.784601211547852,1
1702229,2024-02-06 10:16:43.312390,-0.6939433217048645,1.9119335412979126,9.497451782226562,1
1702305,2024-02-06 10:16:43.387394,-0.9475916028022766,2.3713719844818115,9.736742973327637,1
1702382,2024-02-06 10:16:43.462366,-0.7130866050720215,2.1942968368530273,9.877924919128418,1
1702458,2024-02-06 10:16:43.537398,-0.3350071310997009,2.304370403289795,9.650598526000977,1
1702535,2024-02-06 10:16:43.612367,-0.059822700917720795,2.558018684387207,9.181588172912598,1
1702612,2024-02-06 10:16:43.687368,-0.22971917688846588,2.9911351203918457,9.152873039245605,1
1702688,2024-02-06 10:16:43.762396,-0.7226582169532776,3.1801748275756836,8.839402198791504,1
1702764,2024-02-06 10:16:43.852407,-0.9930568337440491,3.6659352779388428,9.282090187072754,1
1702841,2024-02-06 10:16:43.927358,-1.2849916219711304,3.9674415588378906,9.389771461486816,1
1702917,2024-02-06 10:16:44.001997,-1.103130578994751,4.12298059463501,8.540288925170898,1
1702994,2024-02-06 10:16:44.076791,-1.7803236246109009,4.647027492523193,8.537896156311035,1
1703071,2024-02-06 10:16:44.152356,-1.612820029258728,4.6685638427734375,7.437158584594727,1
1703147,2024-02-06 10:16:44.227363,-1.3328498601913452,5.628119945526123,7.70037841796875,1
1703223,2024-02-06 10:16:44.302178,-1.3831008672714233,5.360114097595215,6.793466091156006,1
1703300,2024-02-06 10:16:44.377393,-1.4309589862823486,6.673820495605469,7.504159927368164,1
1703376,2024-02-06 10:16:44.451987,-0.964341938495636,6.0325212478637695,7.6979851722717285,1
1703453,2024-02-06 10:16:44.527210,-1.2060257196426392,6.274205207824707,6.8820037841796875,1
1703530,2024-02-06 10:16:44.617020,-0.8853759765625,6.520674705505371,5.946376800537109,0
1703606,2024-02-06 10:16:44.692221,-1.3687434196472168,6.800644874572754,6.061236381530762,0
1703682,2024-02-06 10:16:44.767348,-1.4142086505889893,7.463480472564697,5.61615514755249,0
1703759,2024-02-06 10:16:44.842365,-0.9093050956726074,7.750629425048828,4.673349380493164,0
1703835,2024-02-06 10:16:44.917377,-0.9978426694869995,8.848974227905273,3.8262600898742676,0
1703912,2024-02-06 10:16:44.992344,-0.7513731122016907,8.770008087158203,3.156245708465576,0
1703989,2024-02-06 10:16:45.067182,-0.32782840728759766,9.686491966247559,2.8284173011779785,0
1704065,2024-02-06 10:16:45.142335,-0.2225404530763626,9.294054985046387,2.0004711151123047,0
1704141,2024-02-06 10:16:45.217019,0.23689790070056915,9.2725191116333,2.261298179626465,0
1704218,2024-02-06 10:16:45.292348,0.26800569891929626,9.928175926208496,1.8281817436218262,0
1704294,2024-02-06 10:16:45.382347,0.363722026348114,9.389771461486816,1.739644169807434,0
1704371,2024-02-06 10:16:45.456618,-0.15314611792564392,9.691277503967285,1.801859736442566,0
1704448,2024-02-06 10:16:45.532386,-0.4235447347164154,9.533346176147461,1.2419192790985107,0
1704524,2024-02-06 10:16:45.607338,-0.23929080367088318,9.801351547241211,1.4213874340057373,0
1704600,2024-02-06 10:16:45.681647,-0.37807947397232056,9.719992637634277,1.8401463031768799,0
1704677,2024-02-06 10:16:45.756670,-0.44986671209335327,9.777422904968262,1.7970739603042603,0
1704753,2024-02-06 10:16:45.832278,-0.2536482512950897,9.435236930847168,2.1177237033843994,0
1704830,2024-02-06 10:16:45.907370,-0.5025107264518738,9.373021125793457,2.7566301822662354,0
1704907,2024-02-06 10:16:45.982381,-0.7489802241325378,9.547703742980957,3.0246357917785645,0
1704983,2024-02-06 10:16:46.057360,-0.7968384027481079,8.827438354492188,3.3955366611480713,0
1705059,2024-02-06 10:16:46.147361,-1.05048668384552,9.140909194946289,4.041621685028076,0
1705136,2024-02-06 10:16:46.222138,-0.6293348073959351,9.049978256225586,4.706850051879883,0
1705212,2024-02-06 10:16:46.297393,-1.2132043838500977,8.358428001403809,4.924604892730713,0
1705289,2024-02-06 10:16:46.372195,-0.8303391337394714,8.853759765625,4.199553489685059,0
1705366,2024-02-06 10:16:46.447354,-1.5434256792068481,8.877689361572266,4.010513782501221,0
1705442,2024-02-06 10:16:46.522165,-1.356778860092163,10.914053916931152,3.070101022720337,0
1705519,2024-02-06 10:16:46.597337,-1.6606782674789429,10.349327087402344,1.9932924509048462,0
1705595,2024-02-06 10:16:46.672145,-0.4139730930328369,9.21987533569336,4.070336818695068,0
1705671,2024-02-06 10:16:46.747369,-0.19621846079826355,7.197867393493652,4.24501895904541,0
1705748,2024-02-06 10:16:46.822154,-1.0696299076080322,7.719521522521973,3.5032174587249756,0
1705825,2024-02-06 10:16:46.897326,-0.9954497814178467,8.607290267944336,4.611134052276611,0
1705901,2024-02-06 10:16:46.987345,-1.742037057876587,8.353642463684082,4.3670573234558105,0
1705978,2024-02-06 10:16:47.062366,-1.6774286031723022,8.193317413330078,4.07990837097168,0
1706054,2024-02-06 10:16:47.137146,-3.3548572063446045,8.60250473022461,2.866703987121582,0
1706130,2024-02-06 10:16:47.212452,-2.14404559135437,8.061707496643066,4.5010600090026855,0
1706207,2024-02-06 10:16:47.287327,-3.4027152061462402,9.006906509399414,3.4386088848114014,0
1706284,2024-02-06 10:16:47.362343,-2.900204658508301,9.128944396972656,3.4027152061462402,0
1706360,2024-02-06 10:16:47.437371,-3.821474313735962,9.04519271850586,3.0533506870269775,0
1706437,2024-02-06 10:16:47.512338,-3.7999379634857178,8.525931358337402,1.8568966388702393,0
1706513,2024-02-06 10:16:47.587159,-3.244783401489258,7.638162612915039,2.0124356746673584,0
1706589,2024-02-06 10:16:47.677349,-6.2000250816345215,6.862860202789307,1.9717562198638916,0
1706666,2024-02-06 10:16:47.752370,-5.848267555236816,7.3246917724609375,2.333085298538208,0
1706743,2024-02-06 10:16:47.826607,-5.541975021362305,7.032756805419922,2.318727970123291,0
1706819,2024-02-06 10:16:47.917336,-6.417779445648193,6.8820037841796875,1.359171748161316,0
1706896,2024-02-06 10:16:47.992345,-6.288562297821045,7.542446136474609,0.3924369215965271,0
1706972,2024-02-06 10:16:48.052141,-5.518045902252197,8.418251037597656,-0.2010042816400528,0
1707048,2024-02-06 10:16:48.126549,-4.443630218505859,9.638633728027344,-0.8159816861152649,0
1707125,2024-02-06 10:16:48.201521,-4.431665897369385,10.01671314239502,-1.3328498601913452,0
1707202,2024-02-06 10:16:48.277322,-3.153852939605713,9.681706428527832,-1.012200117111206,0
1707278,2024-02-06 10:16:48.352316,-2.129688262939453,9.430450439453125,-1.0696299076080322,0
1707355,2024-02-06 10:16:48.442169,-1.6487137079238892,7.982741355895996,-2.177546262741089,0
1707431,2024-02-06 10:16:48.517346,-1.1749178171157837,8.123923301696777,-1.49317467212677,0
1707507,2024-02-06 10:16:48.592303,-2.5460541248321533,7.499373912811279,-2.4623024463653564,0
1707584,2024-02-06 10:16:48.667321,-0.44747382402420044,8.49003791809082,-3.0724940299987793,0
1707661,2024-02-06 10:16:48.742353,-2.1679747104644775,12.723092079162598,-3.1849606037139893,0
1707737,2024-02-06 10:16:48.816692,-2.4479448795318604,14.914996147155762,-6.477602005004883,0
1707814,2024-02-06 10:16:48.892317,-1.6463208198547363,11.926254272460938,-4.883925437927246,0
1707890,2024-02-06 10:16:48.967293,-0.8351249098777771,9.105015754699707,-5.17346715927124,0
1707966,2024-02-06 10:16:49.042279,-0.5001177787780762,9.583597183227539,-5.0059638023376465,0
1708043,2024-02-06 10:16:49.117292,-1.1222739219665527,9.31319808959961,-5.716657638549805,0
1708120,2024-02-06 10:16:49.222254,-1.2347406148910522,10.244039535522461,-5.40797233581543,0
1708196,2024-02-06 10:16:49.282315,-0.8111958503723145,7.585518836975098,-4.328770637512207,0
1708273,2024-02-06 10:16:49.356986,0.06221561133861542,8.327320098876953,-3.9865849018096924,0
1708349,2024-02-06 10:16:49.432313,-0.0909305065870285,8.006670951843262,-2.3426570892333984,0
1708425,2024-02-06 10:16:49.507305,-0.1698964685201645,7.614233493804932,-1.7755378484725952,0
1708502,2024-02-06 10:16:49.582313,0.16271774470806122,7.709949970245361,-1.4764243364334106,0
1708579,2024-02-06 10:16:49.657309,0.08614469319581985,6.156952381134033,-0.16271774470806122,0
1708655,2024-02-06 10:16:49.732304,0.6269419193267822,6.2502760887146,-1.074415683746338,0
1708732,2024-02-06 10:16:49.807289,0.13878867030143738,8.571396827697754,-1.229954719543457,0
1708808,2024-02-06 10:16:49.882333,1.1246668100357056,11.294526100158691,-1.208418607711792,0
1708884,2024-02-06 10:16:49.972111,2.7925238609313965,10.390007019042969,0.1005021408200264,0
1708961,2024-02-06 10:16:50.047326,2.2038683891296387,8.935118675231934,-0.23929080367088318,0
1709038,2024-02-06 10:16:50.122635,0.9858781099319458,8.82983112335205,0.09332341700792313,0
1709114,2024-02-06 10:16:50.197772,0.5503688454627991,9.181588172912598,-0.10528795421123505,0
1709191,2024-02-06 10:16:50.272578,0.36611494421958923,8.528324127197266,-0.6915504336357117,0
1709267,2024-02-06 10:16:50.347334,-1.2514909505844116,11.761143684387207,0.18664683401584625,0
1709344,2024-02-06 10:16:50.422117,-1.141417145729065,10.136358261108398,0.1005021408200264,0
1709420,2024-02-06 10:16:50.497329,-0.6293348073959351,7.5926971435546875,1.0839873552322388,0
1709497,2024-02-06 10:16:50.572020,-0.2225404530763626,11.500316619873047,2.2086541652679443,0
1709574,2024-02-06 10:16:50.647341,0.4044014811515808,11.158130645751953,2.684842824935913,0
1709650,2024-02-06 10:16:50.736602,-0.40679436922073364,8.66472053527832,1.148595929145813,0
1709726,2024-02-06 10:16:50.812386,-0.8159816861152649,9.172017097473145,1.524282455444336,0
1709803,2024-02-06 10:16:50.887337,-0.8853759765625,9.533346176147461,1.6750357151031494,0
1709879,2024-02-06 10:16:50.962318,-1.1055235862731934,9.2725191116333,1.4429235458374023,0
1709956,2024-02-06 10:16:51.036949,-0.9810923337936401,9.65299129486084,0.6269419193267822,0
1710033,2024-02-06 10:16:51.112321,-1.208418607711792,9.162445068359375,0.07657305896282196,0
1710109,2024-02-06 10:16:51.187343,-0.24407662451267242,10.0885009765625,1.9813278913497925,0
1710185,2024-02-06 10:16:51.262301,1.0074143409729004,9.162445068359375,1.6654640436172485,0
1710262,2024-02-06 10:16:51.337290,1.1916682720184326,9.480701446533203,1.4357448816299438,0
1710338,2024-02-06 10:16:51.412315,1.1055235862731934,10.610154151916504,1.844932198524475,0
1710415,2024-02-06 10:16:51.502294,0.9978426694869995,9.176802635192871,2.4144442081451416,0
1710492,2024-02-06 10:16:51.577285,0.9954497814178467,8.49721622467041,1.9837207794189453,0
1710568,2024-02-06 10:16:51.652326,1.043307900428772,9.169623374938965,1.8880045413970947,0
1710644,2024-02-06 10:16:51.727283,0.679585874080658,9.294054985046387,2.093794584274292,0
1710721,2024-02-06 10:16:51.802386,0.461831271648407,9.334734916687012,2.409658432006836,0
1710797,2024-02-06 10:16:51.877293,0.36850783228874207,10.385221481323242,1.5793193578720093,0
1710874,2024-02-06 10:16:51.952282,0.7776951193809509,11.095914840698242,1.672642707824707,0
1710951,2024-02-06 10:16:52.027317,0.08135887235403061,10.370863914489746,2.050722122192383,0
1711027,2024-02-06 10:16:52.102308,-1.1533817052841187,7.810451984405518,0.25604116916656494,0
1711103,2024-02-06 10:16:52.177253,-0.8423036336898804,9.578810691833496,1.1916682720184326,0
1711180,2024-02-06 10:16:52.267282,-0.4259376525878906,9.956890106201172,2.2014753818511963,0
1711256,2024-02-06 10:16:52.342277,-0.9786993861198425,8.65514850616455,2.1751534938812256,0
1711333,2024-02-06 10:16:52.417279,-0.8877689242362976,9.040407180786133,3.036600351333618,0
1711410,2024-02-06 10:16:52.492269,-0.667621374130249,9.083478927612305,2.8762755393981934,0
1711486,2024-02-06 10:16:52.567250,-0.679585874080658,8.937511444091797,2.275655508041382,0
1711562,2024-02-06 10:16:52.642260,-0.9451987147331238,9.509416580200195,2.5556259155273438,0
1711639,2024-02-06 10:16:52.717280,0.43550926446914673,10.066964149475098,4.118195056915283,0
1711715,2024-02-06 10:16:52.792126,-0.7896596789360046,10.650834083557129,1.5027462244033813,0
1711791,2024-02-06 10:16:52.867288,0.8183745741844177,9.698456764221191,1.6965718269348145,0
1711868,2024-02-06 10:16:52.942135,0.9906639456748962,8.365606307983398,0.011964540928602219,0
1711945,2024-02-06 10:16:53.031992,0.8614469170570374,9.10740852355957,0.7968384027481079,0
1712021,2024-02-06 10:16:53.107320,-0.9619490504264832,10.133965492248535,1.8042527437210083,0
1712098,2024-02-06 10:16:53.182236,0.6293348073959351,9.387378692626953,1.8736470937728882,0
1712174,2024-02-06 10:16:53.257288,0.8518753051757812,9.258161544799805,1.6750357151031494,0
1712250,2024-02-06 10:16:53.332129,0.5192610621452332,9.133729934692383,1.7516087293624878,0
1712327,2024-02-06 10:16:53.407284,0.600619912147522,9.038013458251953,1.4740313291549683,0
1712404,2024-02-06 10:16:53.482240,0.6915504336357117,9.518988609313965,1.9478272199630737,0
1712480,2024-02-06 10:16:53.557275,0.25604116916656494,9.485487937927246,2.024400234222412,0
1712557,2024-02-06 10:16:53.631563,-1.0696299076080322,11.560138702392578,1.9717562198638916,0
1712633,2024-02-06 10:16:53.707280,-1.0409150123596191,10.08610725402832,0.3326142132282257,0
1712709,2024-02-06 10:16:53.797218,-1.995685338973999,7.741057872772217,-0.47858160734176636,0
1712786,2024-02-06 10:16:53.872078,-0.44747382402420044,9.612311363220215,-0.13878867030143738,0
1712863,2024-02-06 10:16:53.947293,-0.8566610813140869,10.059785842895508,-0.19861137866973877,0
1712939,2024-02-06 10:16:54.022064,-2.115330696105957,8.647970199584961,0.0047858161851763725,0
1713016,2024-02-06 10:16:54.112244,-1.2323477268218994,9.253376007080078,-0.4833674430847168,0
1713092,2024-02-06 10:16:54.172110,-0.6652284264564514,9.002120018005371,-0.7561589479446411,0
1713169,2024-02-06 10:16:54.247275,-0.09571632742881775,9.047585487365723,-0.6604426503181458,0
1713246,2024-02-06 10:16:54.322131,-0.28714898228645325,9.090658187866211,-2.641770601272583,0
1713322,2024-02-06 10:16:54.397240,0.0023929080925881863,9.791779518127441,-2.402479648590088,0
1713399,2024-02-06 10:16:54.472097,1.4405306577682495,9.308412551879883,-4.024871349334717,0
1713475,2024-02-06 10:16:54.562245,1.079201579093933,7.942061901092529,-4.137338161468506,0
1713551,2024-02-06 10:16:54.637323,-0.5790837407112122,7.334263324737549,-6.054057598114014,0
1713628,2024-02-06 10:16:54.712285,1.179703712463379,8.616862297058105,-6.4393157958984375,0
1713705,2024-02-06 10:16:54.787096,-1.517103672027588,7.501766681671143,-7.628591060638428,0
1713781,2024-02-06 10:16:54.862289,-1.1055235862731934,6.793466091156006,-7.250511646270752,0
1713858,2024-02-06 10:16:54.937261,-0.2225404530763626,5.800409317016602,-7.808059215545654,0
1713934,2024-02-06 10:16:55.012244,-0.5647262930870056,5.293112754821777,-8.636005401611328,0
1714010,2024-02-06 10:16:55.087254,-0.07418014854192734,4.4938812255859375,-8.92554759979248,0
1714087,2024-02-06 10:16:55.162247,0.021536173298954964,3.7281508445739746,-8.987762451171875,0
1714164,2024-02-06 10:16:55.237239,0.24407662451267242,2.837989091873169,-9.485487937927246,0
1714240,2024-02-06 10:16:55.327235,0.15793193876743317,2.156010150909424,-9.93774700164795,0
1714317,2024-02-06 10:16:55.402250,0.26561281085014343,1.6247845888137817,-9.74870777130127,0
1714393,2024-02-06 10:16:55.477228,-0.3541503846645355,1.1844894886016846,-9.949711799621582,0
1714469,2024-02-06 10:16:55.567197,-0.4546525478363037,0.667621374130249,-10.007142066955566,0
1714546,2024-02-06 10:16:55.671523,-0.25843408703804016,0.28714898228645325,-9.90424633026123,0
1714623,2024-02-06 10:16:55.701563,-1.1150951385498047,0.08135887235403061,-10.344541549682617,0
1714699,2024-02-06 10:16:55.776541,-0.6460852026939392,-0.13639576733112335,-10.708263397216797,0
1714776,2024-02-06 10:16:55.852282,-0.7944455146789551,-0.339792937040329,-11.641497611999512,0
1714852,2024-02-06 10:16:55.927244,-1.2945632934570312,-0.7561589479446411,-11.517066955566406,0
1714928,2024-02-06 10:16:56.001517,-1.3902796506881714,-0.8399107456207275,-12.079400062561035,0
1715005,2024-02-06 10:16:56.091720,-0.7992312908172607,-0.5862624645233154,-12.050684928894043,0
1715082,2024-02-06 10:16:56.167251,-1.7133221626281738,-0.1507532149553299,-11.32802677154541,0
1715158,2024-02-06 10:16:56.241695,-1.531461238861084,0.2321120798587799,-9.952104568481445,0
1715235,2024-02-06 10:16:56.317109,-0.8470894694328308,0.825553297996521,-9.839637756347656,0
1715311,2024-02-06 10:16:56.391729,-0.14596739411354065,1.359171748161316,-9.820494651794434,0
1715387,2024-02-06 10:16:56.467239,-0.2321120798587799,1.928683876991272,-9.325162887573242,0
1715464,2024-02-06 10:16:56.541737,0.047858163714408875,2.359407424926758,-9.440022468566895,0
1715541,2024-02-06 10:16:56.617238,0.6054057478904724,3.3692145347595215,-9.298840522766113,0
1715617,2024-02-06 10:16:56.691732,0.41636601090431213,3.9243693351745605,-9.181588172912598,0
1715694,2024-02-06 10:16:56.767267,-0.4833674430847168,5.319434642791748,-9.71520709991455,0
1715770,2024-02-06 10:16:56.841759,-0.13639576733112335,6.176095962524414,-9.250982284545898,0
1715846,2024-02-06 10:16:56.932233,-0.11725249886512756,6.618783950805664,-8.456537246704102,0
1715923,2024-02-06 10:16:57.006682,0.22014755010604858,6.77910852432251,-6.2287397384643555,0
1716000,2024-02-06 10:16:57.082216,-0.05742979422211647,7.269654750823975,-5.470187664031982,0
1716077,2024-02-06 10:16:57.157213,-0.08375178277492523,7.614233493804932,-4.694885730743408,0
1716153,2024-02-06 10:16:57.232269,-0.014357448555529118,8.461322784423828,-3.843010425567627,0
1716229,2024-02-06 10:16:57.307220,0.36850783228874207,8.84658145904541,-3.225640058517456,0
1716306,2024-02-06 10:16:57.382220,0.4642241597175598,9.203125,-2.278048515319824,0
1716382,2024-02-06 10:16:57.457268,0.9021263718605042,8.954261779785156,-2.2086541652679443,0
1716458,2024-02-06 10:16:57.532292,-0.30868515372276306,8.604897499084473,-1.524282455444336,0
1716535,2024-02-06 10:16:57.622037,0.05742979422211647,9.145694732666016,-2.177546262741089,0
1716612,2024-02-06 10:16:57.697218,0.08135887235403061,11.988469123840332,-0.27997025847435,0
1716688,2024-02-06 10:16:57.772089,-2.818845748901367,11.280168533325195,0.6436922550201416,0
1716765,2024-02-06 10:16:57.847257,-3.352464199066162,9.583597183227539,-0.3948298394680023,0
1716841,2024-02-06 10:16:57.921535,-2.445552110671997,7.310334205627441,-1.0768086910247803,0
1716917,2024-02-06 10:16:58.012203,-1.6534994840621948,8.762829780578613,0.07178724557161331,0
1716994,2024-02-06 10:16:58.072136,-0.8231604099273682,10.334970474243164,0.4737958014011383,0
1717071,2024-02-06 10:16:58.147225,-2.0602939128875732,9.56684684753418,0.5551546812057495,0
1717147,2024-02-06 10:16:58.222072,-2.4407663345336914,9.66016960144043,0.4235447347164154,0
1717224,2024-02-06 10:16:58.296413,-2.3282995223999023,9.109801292419434,0.844696581363678,0
1717300,2024-02-06 10:16:58.387257,-2.0291860103607178,8.856152534484863,1.49317467212677,0
1717376,2024-02-06 10:16:58.462189,-1.8808257579803467,8.980584144592285,1.5577831268310547,0
1717453,2024-02-06 10:16:58.537243,-0.2225404530763626,10.930804252624512,0.6532639265060425,0
1717530,2024-02-06 10:16:58.612178,0.16271774470806122,8.521145820617676,0.13400284945964813,0
1717606,2024-02-06 10:16:58.687207,1.081594467163086,10.679549217224121,1.1581674814224243,0
1717683,2024-02-06 10:16:58.762219,0.23689790070056915,10.263182640075684,1.6654640436172485,0
1717759,2024-02-06 10:16:58.837209,1.3184924125671387,9.521381378173828,1.3854937553405762,0
1717835,2024-02-06 10:16:58.912221,1.1462029218673706,9.205517768859863,1.4501023292541504,0
1717912,2024-02-06 10:16:58.987218,0.49772489070892334,8.839402198791504,2.0196144580841064,0
1717989,2024-02-06 10:16:59.062213,0.47858160734176636,9.57402515411377,2.17036771774292,0
1718065,2024-02-06 10:16:59.152196,0.5766908526420593,9.361056327819824,2.199082612991333,0
1718142,2024-02-06 10:16:59.227243,0.5120823383331299,8.805901527404785,2.4838385581970215,0
1718218,2024-02-06 10:16:59.302195,0.569512128829956,9.083478927612305,2.1464385986328125,0
1718294,2024-02-06 10:16:59.377252,0.5384043455123901,9.167230606079102,2.1536173820495605,0
1718371,2024-02-06 10:16:59.452096,0.4044014811515808,9.911425590515137,3.2782840728759766,0
1718448,2024-02-06 10:16:59.526989,-0.14596739411354065,11.899931907653809,1.4668526649475098,0
1718524,2024-02-06 10:16:59.601823,-1.0959519147872925,9.234231948852539,1.8066456317901611,0
1718601,2024-02-06 10:16:59.677198,-1.6271774768829346,7.303155422210693,0.4929390549659729,0
1718677,2024-02-06 10:16:59.752213,-0.18425391614437103,10.966697692871094,1.7157150506973267,0
1718753,2024-02-06 10:16:59.827208,-0.8710185289382935,9.21030330657959,2.4838385581970215,0
1718830,2024-02-06 10:16:59.902213,-1.0002355575561523,8.078457832336426,2.8140599727630615,0
1718907,2024-02-06 10:16:59.992192,-0.7920525670051575,9.528559684753418,3.000706672668457,0
1718984,2024-02-06 10:17:00.067123,-0.6317277550697327,8.667113304138184,3.0796728134155273,0
1719060,2024-02-06 10:17:00.142205,-0.7298369407653809,8.9231538772583,2.802095413208008,0
1719136,2024-02-06 10:17:00.217193,-0.6245490312576294,9.473523139953613,3.196925163269043,0
1719213,2024-02-06 10:17:00.292185,0.18903973698616028,9.547703742980957,4.314413070678711,0
1719290,2024-02-06 10:17:00.382225,-1.3304568529129028,11.160523414611816,1.5721405744552612,0
1719366,2024-02-06 10:17:00.441859,0.41875892877578735,9.064335823059082,2.1105449199676514,0
1719443,2024-02-06 10:17:00.517197,0.758551836013794,8.277069091796875,1.0887731313705444,0
1719519,2024-02-06 10:17:00.622058,0.7011220455169678,9.109801292419434,1.1438100337982178,0
1719595,2024-02-06 10:17:00.711465,-0.37807947397232056,10.461793899536133,1.777930736541748,0
1719672,2024-02-06 10:17:00.802191,0.4044014811515808,9.229446411132812,1.9765421152114868,0
1719749,2024-02-06 10:17:00.832196,0.7609447836875916,9.248589515686035,1.6343562602996826,0
1719825,2024-02-06 10:17:00.907183,0.7800880670547485,9.389771461486816,2.086615800857544,0
1719902,2024-02-06 10:17:00.982195,1.1916682720184326,9.100229263305664,2.402479648590088,0
1719978,2024-02-06 10:17:01.071698,0.8111958503723145,9.066728591918945,2.670485496520996,0
1720054,2024-02-06 10:17:01.132137,0.5910483002662659,8.9231538772583,2.8834543228149414,0
1720131,2024-02-06 10:17:01.207178,-0.8853759765625,10.1578950881958,3.907618999481201,0
1720208,2024-02-06 10:17:01.282182,0.09571632742881775,11.737214088439941,2.3570144176483154,0
1720284,2024-02-06 10:17:01.372036,-0.5384043455123901,8.511573791503906,1.8162171840667725,0
1720361,2024-02-06 10:17:01.432087,-1.5936768054962158,8.171781539916992,1.4955675601959229,0
1720437,2024-02-06 10:17:01.521977,0.007178724277764559,10.492901802062988,2.4359803199768066,0
1720513,2024-02-06 10:17:01.597194,-0.7681235074996948,8.652755737304688,2.8140599727630615,0
1720590,2024-02-06 10:17:01.672019,-0.22971917688846588,9.002120018005371,2.1895108222961426,0
1720666,2024-02-06 10:17:01.747191,-0.25843408703804016,10.11242961883545,2.3426570892333984,0
1720743,2024-02-06 10:17:01.822000,-0.7250511646270752,9.337127685546875,2.206261157989502,0
1720820,2024-02-06 10:17:01.897171,-1.4477094411849976,9.607525825500488,2.14404559135437,0
1720896,2024-02-06 10:17:01.972061,-1.4812101125717163,9.760672569274902,2.54366135597229,0
1720972,2024-02-06 10:17:02.047203,-0.08614469319581985,8.856152534484863,1.1007376909255981,0
1721049,2024-02-06 10:17:02.137204,0.6125844717025757,9.332341194152832,0.6724071502685547,0
1721125,2024-02-06 10:17:02.197189,1.0480937957763672,9.298840522766113,0.8997334241867065,0
1721202,2024-02-06 10:17:02.287159,0.49054616689682007,9.509416580200195,0.7322298884391785,0
1721279,2024-02-06 10:17:02.361554,0.7776951193809509,9.839637756347656,0.5790837407112122,0
1721355,2024-02-06 10:17:02.437153,1.2945632934570312,9.985605239868164,0.7059078812599182,0
1721431,2024-02-06 10:17:02.512153,1.0385221242904663,10.028677940368652,1.1677391529083252,0
1721508,2024-02-06 10:17:02.587189,0.8040171265602112,9.516595840454102,0.7202653288841248,0
1721584,2024-02-06 10:17:02.662185,1.1629533767700195,9.552489280700684,1.2060257196426392,0
1721661,2024-02-06 10:17:02.737145,1.5553902387619019,9.483095169067383,0.7011220455169678,0
1721738,2024-02-06 10:17:02.812181,1.619998812675476,9.554882049560547,0.9308412671089172,0
1721814,2024-02-06 10:17:02.902191,1.7276796102523804,9.617097854614258,0.758551836013794,0
1721891,2024-02-06 10:17:02.977175,1.777930736541748,9.617097854614258,0.8901618123054504,0
1721967,2024-02-06 10:17:03.052260,1.7611804008483887,9.621883392333984,0.6915504336357117,0
1722043,2024-02-06 10:17:03.127235,1.830574631690979,9.502238273620605,1.0696299076080322,0
1722120,2024-02-06 10:17:03.202139,0.7154794931411743,10.1578950881958,1.485995888710022,0
1722197,2024-02-06 10:17:03.277642,-0.07896596938371658,9.547703742980957,1.3232781887054443,0
1722273,2024-02-06 10:17:03.351794,-0.04307234659790993,9.085871696472168,1.5434256792068481,0
1722349,2024-02-06 10:17:03.426822,-0.20579010248184204,10.428293228149414,1.8999689817428589,0
1722426,2024-02-06 10:17:03.501880,-0.5575475692749023,9.145694732666016,1.8832186460494995,0
1722502,2024-02-06 10:17:03.576816,-1.8832186460494995,9.411307334899902,1.9980782270431519,0
1722579,2024-02-06 10:17:03.667063,-1.8951832056045532,8.882474899291992,2.4407663345336914,0
1722656,2024-02-06 10:17:03.726772,-1.0863802433013916,9.310805320739746,2.713557720184326,0
1722732,2024-02-06 10:17:03.817082,-0.8494823575019836,9.250982284545898,2.234976053237915,0
1722809,2024-02-06 10:17:03.892013,-0.6867645978927612,9.179195404052734,2.4407663345336914,0
1722885,2024-02-06 10:17:03.967118,-0.619763195514679,9.339520454406738,2.3713719844818115,0
1722961,2024-02-06 10:17:04.041628,-0.5719050168991089,9.518988609313965,2.6800570487976074,0
1723038,2024-02-06 10:17:04.117146,-1.0839873552322388,9.456772804260254,2.7446656227111816,0
1723115,2024-02-06 10:17:04.192100,-0.6604426503181458,11.792250633239746,2.5340895652770996,0
1723191,2024-02-06 10:17:04.266894,-0.31825676560401917,10.28711223602295,2.065079689025879,0
1723268,2024-02-06 10:17:04.342137,0.36611494421958923,8.9590482711792,1.5386399030685425,0
1723344,2024-02-06 10:17:04.432130,0.4929390549659729,9.109801292419434,1.4572809934616089,0
1723420,2024-02-06 10:17:04.491833,0.952377438545227,8.772400856018066,1.4429235458374023,0
1723497,2024-02-06 10:17:04.582068,0.44747382402420044,10.054999351501465,2.134474039077759,0
1723574,2024-02-06 10:17:04.657128,0.41636601090431213,9.406521797180176,1.9837207794189453,0
1723650,2024-02-06 10:17:04.747146,0.746587336063385,9.016477584838867,2.4120514392852783,0
1723727,2024-02-06 10:17:04.852117,0.8135887384414673,9.6697416305542,1.9597917795181274,0
1723803,2024-02-06 10:17:04.896806,0.4522596299648285,9.440022468566895,2.0411505699157715,0
1723879,2024-02-06 10:17:04.956946,1.079201579093933,9.329948425292969,2.045936346054077,0
1723956,2024-02-06 10:17:05.032134,0.8231604099273682,9.420879364013672,2.536482572555542,0
1724033,2024-02-06 10:17:05.107154,0.6030128598213196,9.30601978302002,2.699200391769409,0
1724109,2024-02-06 10:17:05.197113,0.5312256217002869,10.629298210144043,2.263690948486328,0
1724186,2024-02-06 10:17:05.256594,0.27757734060287476,9.712814331054688,2.136866807937622,0
1724262,2024-02-06 10:17:05.347150,0.181861013174057,9.13133716583252,2.2947988510131836,0
1724338,2024-02-06 10:17:05.421961,-0.47858160734176636,9.145694732666016,1.8162171840667725,0
1724415,2024-02-06 10:17:05.497128,-1.3376356363296509,8.700613975524902,1.4094228744506836,0
1724492,2024-02-06 10:17:05.571971,-1.1868823766708374,9.90424633026123,2.3378713130950928,0
1724568,2024-02-06 10:17:05.647126,-0.8734114766120911,9.600347518920898,2.4694812297821045,0
1724645,2024-02-06 10:17:05.721403,-1.524282455444336,8.51636028289795,2.457516670227051,0
1724721,2024-02-06 10:17:05.796493,-1.177310824394226,9.248589515686035,2.1751534938812256,0
1724797,2024-02-06 10:17:05.871985,-1.1150951385498047,9.511809349060059,2.565197467803955,0
1724874,2024-02-06 10:17:05.962160,-0.8686256408691406,9.119372367858887,2.670485496520996,0
1724951,2024-02-06 10:17:06.022029,-1.103130578994751,9.466344833374023,2.802095413208008,0
1725027,2024-02-06 10:17:06.112139,-1.079201579093933,9.143301963806152,2.6896286010742188,0
1725104,2024-02-06 10:17:06.187213,-1.0696299076080322,9.688884735107422,3.0964231491088867,0
1725180,2024-02-06 10:17:06.262129,-1.5673547983169556,10.37325668334961,1.7061434984207153,0
1725256,2024-02-06 10:17:06.337158,-1.177310824394226,9.82528018951416,1.6104271411895752,0
1725333,2024-02-06 10:17:06.412177,-0.5455830693244934,9.940139770507812,1.0911661386489868,0
1725410,2024-02-06 10:17:06.487133,0.3326142132282257,8.719757080078125,0.6604426503181458,0
1725486,2024-02-06 10:17:06.561391,0.6748000979423523,9.940139770507812,1.2060257196426392,0
1725563,2024-02-06 10:17:06.637124,0.5431901216506958,9.892282485961914,1.6774286031723022,0
1725639,2024-02-06 10:17:06.727120,0.363722026348114,9.191160202026367,2.045936346054077,0
1725715,2024-02-06 10:17:06.802135,0.5001177787780762,9.724778175354004,1.7300724983215332,0
1725792,2024-02-06 10:17:06.877235,0.6748000979423523,9.676919937133789,1.9837207794189453,0
1725869,2024-02-06 10:17:06.952126,0.8973405361175537,9.169623374938965,2.464695453643799,0
1725945,2024-02-06 10:17:07.027104,0.6221560835838318,9.815709114074707,2.438373327255249,0
1726022,2024-02-06 10:17:07.117116,-0.18903973698616028,9.54052448272705,2.304370403289795,0
1726098,2024-02-06 10:17:07.176781,-0.40918728709220886,8.94947624206543,2.4216229915618896,0
1726175,2024-02-06 10:17:07.252116,-0.7250511646270752,9.243803977966309,2.10097336769104,0
1726251,2024-02-06 10:17:07.327093,-0.5910483002662659,9.435236930847168,2.4838385581970215,0
1726328,2024-02-06 10:17:07.402117,-0.5838695764541626,9.358663558959961,2.493410348892212,0
1726405,2024-02-06 10:17:07.492142,-0.22732627391815186,9.346698760986328,2.325906753540039,0
1726481,2024-02-06 10:17:07.567092,-0.30868515372276306,9.430450439453125,2.3833365440368652,0
1726557,2024-02-06 10:17:07.642149,-0.6101915836334229,9.308412551879883,2.670485496520996,0
1726634,2024-02-06 10:17:07.717137,-0.6963362693786621,9.212696075439453,2.340264081954956,0
1726710,2024-02-06 10:17:07.792120,-0.765730619430542,8.95665454864502,2.7279152870178223,0
1726787,2024-02-06 10:17:07.867124,0.0502510704100132,9.523774147033691,2.615448474884033,0
1726864,2024-02-06 10:17:07.942046,-0.12443122267723083,9.174409866333008,2.924133777618408,0
1726940,2024-02-06 10:17:08.016416,-0.16750356554985046,9.935354232788086,3.287855625152588,0
1727016,2024-02-06 10:17:08.092171,-0.28714898228645325,9.456772804260254,3.1490671634674072,0
1727093,2024-02-06 10:17:08.167098,-0.6317277550697327,8.911190032958984,2.7279152870178223,0
1727169,2024-02-06 10:17:08.242138,-0.028714897111058235,9.236625671386719,1.7563945055007935,0
1727246,2024-02-06 10:17:08.331432,0.5551546812057495,9.863567352294922,1.8210030794143677,0
1727323,2024-02-06 10:17:08.406304,0.16511066257953644,9.588382720947266,1.3160994052886963,0
1727399,2024-02-06 10:17:08.481910,1.0337363481521606,8.423036575317383,1.2443121671676636,0
1727475,2024-02-06 10:17:08.557096,0.600619912147522,10.509652137756348,1.8186101913452148,0
1727552,2024-02-06 10:17:08.632101,0.3517574965953827,9.36584186553955,2.5101606845855713,0
1727628,2024-02-06 10:17:08.707078,0.2727915346622467,9.389771461486816,2.584340810775757,0
1727705,2024-02-06 10:17:08.782099,0.5599405169487,9.006906509399414,2.4264087677001953,0
1727782,2024-02-06 10:17:08.857067,1.012200117111206,9.286876678466797,2.5173392295837402,0
1727858,2024-02-06 10:17:08.932110,0.8399107456207275,9.138516426086426,2.340264081954956,0
1727934,2024-02-06 10:17:09.022011,0.8231604099273682,9.363449096679688,3.0940301418304443,0
1728011,2024-02-06 10:17:09.097092,-0.3445787727832794,10.083714485168457,2.634591817855835,0
1728087,2024-02-06 10:17:09.171979,-0.48815324902534485,9.980819702148438,1.742037057876587,0
1728164,2024-02-06 10:17:09.247089,0.5599405169487,10.212931632995605,1.9717562198638916,0
1728241,2024-02-06 10:17:09.321973,-1.0026284456253052,7.52569580078125,1.2802058458328247,0
1728317,2024-02-06 10:17:09.397154,-1.019378900527954,10.25121784210205,2.5819478034973145,0
1728393,2024-02-06 10:17:09.471941,-0.9810923337936401,8.92554759979248,2.921740770339966,0
1728470,2024-02-06 10:17:09.547072,-0.8470894694328308,8.461322784423828,2.711164951324463,0
1728546,2024-02-06 10:17:09.621906,-1.0265575647354126,9.04519271850586,2.895418882369995,0
1728623,2024-02-06 10:17:09.696954,-1.0839873552322388,8.762829780578613,3.400322437286377,0
1728700,2024-02-06 10:17:09.787076,-0.7944455146789551,8.796330451965332,3.280677080154419,0
1728776,2024-02-06 10:17:09.862175,-1.0552724599838257,9.088264465332031,2.9672060012817383,0
1728852,2024-02-06 10:17:09.937056,-0.600619912147522,9.04519271850586,3.787973403930664,0
1728929,2024-02-06 10:17:10.012097,-0.3541503846645355,11.299311637878418,1.1366313695907593,0
1729005,2024-02-06 10:17:10.102098,0.44268798828125,10.586225509643555,1.0074143409729004,0
