timestamp,timestamp_local,ax,ay,az,fall_state
2224829,2024-02-06 10:25:25.905933,0.5336185097694397,9.92099666595459,1.809038519859314,0
2224906,2024-02-06 10:25:25.980814,1.4285660982131958,8.659934043884277,2.017221450805664,0
2224982,2024-02-06 10:25:26.055790,1.3472073078155518,9.4950590133667,2.0220072269439697,0
2225059,2024-02-06 10:25:26.130785,0.8303391337394714,9.325162887573242,2.4216229915618896,0
2225135,2024-02-06 10:25:26.205819,1.356778860092163,8.935118675231934,2.459909439086914,0
2225211,2024-02-06 10:25:26.280797,1.3854937553405762,9.394556999206543,2.2804415225982666,0
2225288,2024-02-06 10:25:26.370714,1.0480937957763672,9.4950590133667,2.9815635681152344,0
2225365,2024-02-06 10:25:26.445659,0.23689790070056915,10.818337440490723,2.7638089656829834,0
2225441,2024-02-06 10:25:26.520602,0.509689450263977,10.114822387695312,2.577162027359009,0
2225518,2024-02-06 10:25:26.595731,-0.32543548941612244,8.399106979370117,1.4285660982131958,0
2225594,2024-02-06 10:25:26.670732,-1.0863802433013916,8.437394142150879,1.4812101125717163,0
2225670,2024-02-06 10:25:26.745755,-0.8327320218086243,10.445043563842773,2.5963053703308105,0
2225747,2024-02-06 10:25:26.820704,-0.923662543296814,8.743685722351074,2.8140599727630615,0
2225824,2024-02-06 10:25:26.895620,-1.1868823766708374,8.76761531829834,2.6298060417175293,0
2225900,2024-02-06 10:25:26.970713,-0.8734114766120911,9.29644775390625,2.8140599727630615,0
2225977,2024-02-06 10:25:27.090752,-0.5958341360092163,8.86333179473877,3.218461275100708,0
2226053,2024-02-06 10:25:27.135882,-0.6915504336357117,9.181588172912598,2.735093832015991,0
2226129,2024-02-06 10:25:27.210759,-0.5240468978881836,9.246196746826172,3.0102784633636475,0
2226206,2024-02-06 10:25:27.285774,-0.19382555782794952,8.93272590637207,3.7616515159606934,0
2226283,2024-02-06 10:25:27.360729,0.648478090763092,11.40699291229248,2.0626866817474365,0
2226359,2024-02-06 10:25:27.434941,0.9571632146835327,10.210538864135742,2.7997024059295654,0
2226436,2024-02-06 10:25:27.510116,0.8159816861152649,8.762829780578613,1.3902796506881714,0
2226512,2024-02-06 10:25:27.585838,2.072258472442627,7.9994916915893555,1.275420069694519,0
2226588,2024-02-06 10:25:27.660114,1.3424214124679565,10.725013732910156,1.3400285243988037,0
2226665,2024-02-06 10:25:27.735781,1.7635732889175415,8.652755737304688,2.17036771774292,0
2226742,2024-02-06 10:25:27.810018,1.928683876991272,9.310805320739746,2.184725046157837,0
2226818,2024-02-06 10:25:27.915711,0.6125844717025757,9.449594497680664,2.2254045009613037,0
2226895,2024-02-06 10:25:27.975033,0.2536482512950897,9.195945739746094,3.0892443656921387,0
2226971,2024-02-06 10:25:28.050768,0.25843408703804016,9.016477584838867,2.818845748901367,0
2227047,2024-02-06 10:25:28.125003,-0.37807947397232056,12.59387493133545,3.077279806137085,0
2227124,2024-02-06 10:25:28.200408,1.0696299076080322,11.567317962646484,1.0313433408737183,0
2227201,2024-02-06 10:25:28.275803,-1.1844894886016846,5.941590785980225,0.8949476480484009,0
2227277,2024-02-06 10:25:28.350747,-0.5025107264518738,10.722620964050293,1.5482115745544434,0
2227354,2024-02-06 10:25:28.425836,0.382865309715271,9.404129028320312,2.964813232421875,0
2227430,2024-02-06 10:25:28.500758,-0.6987291574478149,7.78652286529541,3.1227450370788574,0
2227506,2024-02-06 10:25:28.575776,-0.7346227765083313,9.430450439453125,3.1083877086639404,0
2227583,2024-02-06 10:25:28.665074,-0.9404128789901733,8.667113304138184,3.563040256500244,0
2227660,2024-02-06 10:25:28.739961,-0.6939433217048645,8.853759765625,3.1371026039123535,0
2227737,2024-02-06 10:25:28.815002,0.12921704351902008,9.260554313659668,3.9363338947296143,0
2227813,2024-02-06 10:25:28.890115,-0.2943277060985565,8.604897499084473,4.376628875732422,0
2227889,2024-02-06 10:25:28.965021,-0.04307234659790993,12.244510650634766,2.565197467803955,0
2227966,2024-02-06 10:25:29.040141,1.0648441314697266,9.341913223266602,3.3955366611480713,0
2228042,2024-02-06 10:25:29.115655,0.9380199909210205,8.927940368652344,1.4285660982131958,0
2228119,2024-02-06 10:25:29.205118,2.002864122390747,8.841794967651367,1.2802058458328247,0
2228196,2024-02-06 10:25:29.265752,1.9693633317947388,9.507023811340332,1.0935590267181396,0
2228272,2024-02-06 10:25:29.340355,1.6415349245071411,9.511809349060059,1.1198810338974,0
2228348,2024-02-06 10:25:29.430747,1.6176059246063232,9.358663558959961,1.1844894886016846,0
2228425,2024-02-06 10:25:29.505187,1.1557745933532715,9.631455421447754,1.4357448816299438,0
2228501,2024-02-06 10:25:29.580373,1.32806396484375,9.980819702148438,1.6702498197555542,0
2228578,2024-02-06 10:25:29.655028,1.268241286277771,9.100229263305664,1.6654640436172485,0
2228655,2024-02-06 10:25:29.730008,0.4929390549659729,9.538131713867188,1.801859736442566,0
2228731,2024-02-06 10:25:29.805721,0.06700142472982407,11.026520729064941,2.4623024463653564,0
2228807,2024-02-06 10:25:29.880710,0.01914326474070549,8.595325469970703,1.521889567375183,0
2228884,2024-02-06 10:25:29.955723,-0.22493335604667664,9.959283828735352,1.5362470149993896,0
2228960,2024-02-06 10:25:30.030712,-0.27518442273139954,9.413700103759766,1.6343562602996826,0
2229037,2024-02-06 10:25:30.105672,-1.1533817052841187,8.889653205871582,2.1105449199676514,0
2229114,2024-02-06 10:25:30.194965,-1.4022440910339355,9.942533493041992,1.8521108627319336,0
2229190,2024-02-06 10:25:30.269992,-1.5266753435134888,9.05237102508545,2.2852272987365723,0
2229266,2024-02-06 10:25:30.344958,-1.6343562602996826,9.363449096679688,2.129688262939453,0
2229343,2024-02-06 10:25:30.420688,-1.5553902387619019,9.37541389465332,1.9262909889221191,0
2229419,2024-02-06 10:25:30.495709,-1.6008554697036743,9.286876678466797,2.10097336769104,0
2229496,2024-02-06 10:25:30.570140,-1.2443121671676636,9.332341194152832,2.4910173416137695,0
2229573,2024-02-06 10:25:30.645697,-1.387886643409729,9.492666244506836,2.6561279296875,0
2229649,2024-02-06 10:25:30.720673,-1.0552724599838257,9.710420608520508,2.5532329082489014,0
2229725,2024-02-06 10:25:30.795699,-1.0696299076080322,9.38259220123291,2.550840139389038,0
2229802,2024-02-06 10:25:30.885358,-0.4139730930328369,9.229446411132812,2.0674726963043213,0
2229878,2024-02-06 10:25:30.945812,-0.18664683401584625,9.083478927612305,2.2589051723480225,0
2229955,2024-02-06 10:25:31.035683,-0.009571632370352745,9.526166915893555,2.493410348892212,0
2230032,2024-02-06 10:25:31.110571,0.09571632742881775,9.56684684753418,2.325906753540039,0
2230108,2024-02-06 10:25:31.185694,0.13400284945964813,9.370628356933594,2.2110471725463867,0
2230184,2024-02-06 10:25:31.260509,0.18664683401584625,9.066728591918945,2.263690948486328,0
2230261,2024-02-06 10:25:31.335583,0.49772489070892334,9.30601978302002,2.4264087677001953,0
2230337,2024-02-06 10:25:31.410774,0.7776951193809509,9.966462135314941,2.4192299842834473,0
2230414,2024-02-06 10:25:31.485520,0.6389064788818359,8.813080787658691,3.0892443656921387,0
2230491,2024-02-06 10:25:31.560515,0.9810923337936401,9.633848190307617,2.318727970123291,0
2230567,2024-02-06 10:25:31.635741,1.4429235458374023,9.243803977966309,1.8903974294662476,0
2230643,2024-02-06 10:25:31.710326,0.9667348861694336,9.181588172912598,1.8114314079284668,0
2230720,2024-02-06 10:25:31.800713,0.44747382402420044,10.035856246948242,2.304370403289795,0
2230796,2024-02-06 10:25:31.875265,0.8303391337394714,9.629061698913574,1.5123178958892822,0
2230873,2024-02-06 10:25:31.950698,1.531461238861084,9.076300621032715,1.9310768842697144,0
2230950,2024-02-06 10:25:32.024963,2.1033661365509033,9.468737602233887,1.591283917427063,0
2231026,2024-02-06 10:25:32.100707,1.4501023292541504,9.664956092834473,1.2443121671676636,0
2231102,2024-02-06 10:25:32.175271,1.0074143409729004,9.38498592376709,1.201239824295044,0
2231179,2024-02-06 10:25:32.250031,0.7418015003204346,9.56684684753418,1.4142086505889893,0
2231255,2024-02-06 10:25:32.325170,0.8183745741844177,9.545310020446777,1.4213874340057373,0
2231332,2024-02-06 10:25:32.400381,0.8303391337394714,9.45438003540039,1.7468229532241821,0
2231409,2024-02-06 10:25:32.490343,0.9499844908714294,9.763065338134766,1.4501023292541504,0
2231485,2024-02-06 10:25:32.565472,1.0265575647354126,10.294290542602539,1.679821491241455,0
2231562,2024-02-06 10:25:32.639986,0.4139730930328369,10.043035507202148,0.7800880670547485,0
2231638,2024-02-06 10:25:32.714883,0.3732936680316925,8.884867668151855,1.2610626220703125,0
2231714,2024-02-06 10:25:32.789934,0.461831271648407,9.66016960144043,1.356778860092163,0
2231791,2024-02-06 10:25:32.864884,0.5144752264022827,9.612311363220215,2.0076498985290527,0
2231868,2024-02-06 10:25:32.939901,0.2129688262939453,9.006906509399414,2.3857293128967285,0
2231944,2024-02-06 10:25:33.014912,-0.2010042816400528,9.909032821655273,2.8355960845947266,0
2232021,2024-02-06 10:25:33.089954,-0.6054057478904724,8.659934043884277,2.4766597747802734,0
2232097,2024-02-06 10:25:33.165644,-0.20818300545215607,8.746079444885254,2.431194543838501,0
2232173,2024-02-06 10:25:33.254946,-0.5958341360092163,9.363449096679688,2.577162027359009,0
2232250,2024-02-06 10:25:33.329890,-0.588655412197113,9.112194061279297,2.366586208343506,0
2232327,2024-02-06 10:25:33.404971,-1.0337363481521606,9.499845504760742,2.3067634105682373,0
2232403,2024-02-06 10:25:33.479917,-0.6221560835838318,9.473523139953613,2.290013074874878,0
2232480,2024-02-06 10:25:33.554877,-0.4259376525878906,9.310805320739746,2.6226272583007812,0
2232556,2024-02-06 10:25:33.629947,0.38765111565589905,11.529030799865723,0.3110780417919159,0
2232632,2024-02-06 10:25:33.704911,1.4907817840576172,10.808765411376953,1.6343562602996826,0
2232709,2024-02-06 10:25:33.779871,1.0457007884979248,8.320141792297363,0.3230426013469696,0
2232786,2024-02-06 10:25:33.854906,1.7085363864898682,8.439786911010742,0.2943277060985565,0
2232862,2024-02-06 10:25:33.929978,1.1438100337982178,10.760908126831055,1.4381377696990967,0
2232939,2024-02-06 10:25:34.019948,1.6678569316864014,9.081086158752441,1.8951832056045532,0
2233015,2024-02-06 10:25:34.094915,1.8927903175354004,8.899225234985352,1.464459776878357,0
2233091,2024-02-06 10:25:34.170659,1.689393162727356,9.533346176147461,1.6654640436172485,0
2233168,2024-02-06 10:25:34.245545,1.2514909505844116,9.334734916687012,1.7205009460449219,0
2233245,2024-02-06 10:25:34.320263,1.148595929145813,9.128944396972656,1.8042527437210083,0
2233321,2024-02-06 10:25:34.395504,0.9451987147331238,9.485487937927246,2.141652822494507,0
2233398,2024-02-06 10:25:34.470660,-0.25843408703804016,11.505102157592773,2.811666965484619,0
2233474,2024-02-06 10:25:34.545668,1.49317467212677,10.906874656677246,1.7157150506973267,0
2233550,2024-02-06 10:25:34.619874,0.009571632370352745,7.295976638793945,1.170132040977478,0
2233627,2024-02-06 10:25:34.694879,-0.9069121479988098,8.119136810302734,0.27997025847435,0
2233704,2024-02-06 10:25:34.785695,-0.06700142472982407,12.182294845581055,2.10097336769104,0
2233780,2024-02-06 10:25:34.875470,0.07178724557161331,9.081086158752441,2.6298060417175293,0
2233857,2024-02-06 10:25:34.935750,-0.7944455146789551,8.076065063476562,2.0220072269439697,0
2233933,2024-02-06 10:25:35.010501,-0.8375178575515747,9.389771461486816,2.072258472442627,0
2234009,2024-02-06 10:25:35.085544,-0.6891575455665588,8.798723220825195,2.713557720184326,0
2234086,2024-02-06 10:25:35.160664,-0.3038993179798126,9.078693389892578,2.713557720184326,0
2234163,2024-02-06 10:25:35.250652,-0.4737958014011383,9.423272132873535,2.9839563369750977,0
2234239,2024-02-06 10:25:35.310298,0.14596739411354065,9.337127685546875,3.821474313735962,0
2234316,2024-02-06 10:25:35.385461,0.6604426503181458,12.720699310302734,3.7353296279907227,0
2234392,2024-02-06 10:25:35.460637,1.552997350692749,10.519224166870117,1.9310768842697144,0
2234468,2024-02-06 10:25:35.550598,0.8566610813140869,6.788680076599121,-0.0047858161851763725,0
2234545,2024-02-06 10:25:35.625679,2.053115129470825,9.061943054199219,0.6556568145751953,0
2234622,2024-02-06 10:25:35.699887,1.2443121671676636,10.732192993164062,1.3902796506881714,0
2234698,2024-02-06 10:25:35.775666,2.0985803604125977,8.399106979370117,1.2562767267227173,0
2234775,2024-02-06 10:25:35.850674,2.3378713130950928,8.310569763183594,0.6915504336357117,0
2234851,2024-02-06 10:25:35.925440,2.134474039077759,9.676919937133789,0.8997334241867065,0
2234927,2024-02-06 10:25:36.000393,0.708300769329071,8.789151191711426,0.6077986359596252,0
2235004,2024-02-06 10:25:36.075653,0.9404128789901733,8.961441040039062,0.8327320218086243,0
2235081,2024-02-06 10:25:36.150689,1.299349069595337,13.933903694152832,0.4546525478363037,0
2235157,2024-02-06 10:25:36.225658,0.2512553632259369,11.387849807739258,0.9140908718109131,0
2235234,2024-02-06 10:25:36.315621,0.04307234659790993,6.683392524719238,-0.588655412197113,0
2235310,2024-02-06 10:25:36.390656,-1.404637098312378,10.275147438049316,-0.8518753051757812,0
2235386,2024-02-06 10:25:36.465696,-0.8590540289878845,8.111958503723145,-0.569512128829956,0
2235463,2024-02-06 10:25:36.540635,-0.7633376717567444,6.836538314819336,-0.9715206623077393,0
2235540,2024-02-06 10:25:36.615689,-1.6487137079238892,7.82959508895874,-2.10097336769104,0
2235616,2024-02-06 10:25:36.690690,-3.823867082595825,8.05452823638916,-2.830810308456421,0
2235693,2024-02-06 10:25:36.765584,-0.4953319728374481,8.834616661071777,-2.7638089656829834,0
2235769,2024-02-06 10:25:36.840617,1.5410327911376953,6.1665239334106445,-2.6656997203826904,0
2235846,2024-02-06 10:25:36.915241,-3.232818841934204,4.812138080596924,-0.8614469170570374,1
2235922,2024-02-06 10:25:36.990687,-3.584576368331909,8.152637481689453,-6.11148738861084,1
2235999,2024-02-06 10:25:37.080628,1.1438100337982178,5.163895606994629,-8.48046588897705,1
2236076,2024-02-06 10:25:37.155434,-0.8303391337394714,4.678135395050049,-8.377571105957031,1
2236152,2024-02-06 10:25:37.230492,-2.172760486602783,5.362506866455078,-9.483095169067383,1
2236228,2024-02-06 10:25:37.305694,-0.4450809061527252,6.613997936248779,-10.71065616607666,1
2236305,2024-02-06 10:25:37.380650,-0.4307234585285187,3.787973403930664,-10.78244400024414,1
2236381,2024-02-06 10:25:37.455675,-11.045663833618164,2.4192299842834473,-15.025070190429688,1
2236458,2024-02-06 10:25:37.530670,-6.939433574676514,1.5482115745544434,-8.772400856018066,1
2236535,2024-02-06 10:25:37.605361,-6.5804972648620605,1.3113136291503906,-6.269419193267822,1
2236611,2024-02-06 10:25:37.680305,-4.840853214263916,2.8547394275665283,-4.867175102233887,1
2236687,2024-02-06 10:25:37.755645,-11.85685920715332,5.75494384765625,-6.195239067077637,1
2236764,2024-02-06 10:25:37.830674,-6.3627424240112305,14.218660354614258,-3.3333208560943604,1
2236840,2024-02-06 10:25:37.920314,-7.9707770347595215,-0.952377438545227,-4.568061351776123,1
2236916,2024-02-06 10:25:37.995420,-11.773107528686523,9.612311363220215,-3.393143653869629,1
2236993,2024-02-06 10:25:38.070613,-10.282325744628906,2.495803117752075,-2.802095413208008,1
2237070,2024-02-06 10:25:38.145604,-8.947083473205566,4.448416233062744,-1.8712540864944458,1
2237146,2024-02-06 10:25:38.220592,-9.030835151672363,2.409658432006836,-2.495803117752075,1
2237223,2024-02-06 10:25:38.295659,-8.669506072998047,3.0389933586120605,-1.6152129173278809,1
2237299,2024-02-06 10:25:38.370577,-9.554882049560547,2.9456698894500732,-1.749215841293335,1
2237375,2024-02-06 10:25:38.445476,-9.138516426086426,3.687471389770508,-2.0339717864990234,1
2237452,2024-02-06 10:25:38.520574,-9.11458683013916,3.9650487899780273,-2.053115129470825,1
2237529,2024-02-06 10:25:38.610604,-9.033227920532227,3.809509754180908,-2.1320810317993164,1
2237605,2024-02-06 10:25:38.684943,-9.014084815979004,3.948298454284668,-1.718108057975769,1
2237682,2024-02-06 10:25:38.760052,-8.425429344177246,4.065550804138184,-1.9406484365463257,1
2237758,2024-02-06 10:25:38.835614,-8.67189884185791,3.9578700065612793,-2.0483293533325195,1
2237834,2024-02-06 10:25:38.925276,-8.336892127990723,4.1493024826049805,-2.072258472442627,1
2237911,2024-02-06 10:25:38.985437,-8.368000030517578,4.728386402130127,-2.373764753341675,1
2237988,2024-02-06 10:25:39.060115,-8.573789596557617,4.692492961883545,-2.754237174987793,1
2238064,2024-02-06 10:25:39.135222,-8.360820770263672,4.718814849853516,-2.732701063156128,1
2238141,2024-02-06 10:25:39.210272,-8.248353958129883,5.254826068878174,-2.782952070236206,1
2238217,2024-02-06 10:25:39.285152,-8.145459175109863,5.293112754821777,-3.0389933586120605,1
2238293,2024-02-06 10:25:39.375240,-7.6692705154418945,5.7860517501831055,-3.323749303817749,1
2238370,2024-02-06 10:25:39.449929,-6.927468776702881,6.207203388214111,-3.603719472885132,1
2238447,2024-02-06 10:25:39.525220,-6.903539657592773,6.412993907928467,-3.3835721015930176,1
2238523,2024-02-06 10:25:39.600420,-5.881768226623535,6.9609694480896,-2.873882532119751,1
2238600,2024-02-06 10:25:39.674891,-6.5804972648620605,7.870274543762207,-3.1801748275756836,1
2238676,2024-02-06 10:25:39.750618,-4.972463130950928,7.485016345977783,-2.907383441925049,1
2238752,2024-02-06 10:25:39.825494,-5.070572376251221,8.305784225463867,-1.9837207794189453,1
2238829,2024-02-06 10:25:39.900635,-4.252197742462158,8.391928672790527,-0.5599405169487,1
2238906,2024-02-06 10:25:39.975427,-4.091872692108154,8.554646492004395,-0.20339718461036682,1
2238982,2024-02-06 10:25:40.050036,-2.4981961250305176,8.348855972290039,0.5982270240783691,1
2239059,2024-02-06 10:25:40.140703,-1.8329676389694214,9.708027839660645,0.765730619430542,1
2239135,2024-02-06 10:25:40.215398,-2.325906753540039,8.906403541564941,0.12203831225633621,1
2239211,2024-02-06 10:25:40.289901,-2.172760486602783,9.205517768859863,-0.08853759616613388,0
2239288,2024-02-06 10:25:40.365508,-2.572376251220703,10.476151466369629,0.6628355383872986,0
2239365,2024-02-06 10:25:40.440611,-2.2158329486846924,8.882474899291992,0.016750356182456017,0
2239441,2024-02-06 10:25:40.515619,-2.9193477630615234,9.143301963806152,-0.13639576733112335,0
2239518,2024-02-06 10:25:40.590689,-2.5891265869140625,10.54554557800293,0.11964540183544159,0
2239594,2024-02-06 10:25:40.665582,-1.837753415107727,10.349327087402344,-0.8614469170570374,0
2239671,2024-02-06 10:25:40.740626,-2.424015998840332,9.949711799621582,-2.053115129470825,0
2239748,2024-02-06 10:25:40.815450,-3.1107804775238037,9.514202117919922,-1.9526129961013794,0
2239824,2024-02-06 10:25:40.905611,-3.933940887451172,9.420879364013672,-1.7898952960968018,0
2239901,2024-02-06 10:25:40.980657,-5.017928123474121,8.741292953491211,-0.5144752264022827,0
2239977,2024-02-06 10:25:41.055606,-4.977248668670654,9.535738945007324,-0.8758043646812439,0
2240053,2024-02-06 10:25:41.130637,-5.039464473724365,8.786758422851562,-0.7059078812599182,0
2240130,2024-02-06 10:25:41.205598,-4.524989128112793,7.997098922729492,-1.8664683103561401,0
2240207,2024-02-06 10:25:41.280586,-5.319434642791748,8.044957160949707,-2.136866807937622,0
2240283,2024-02-06 10:25:41.355651,-6.020556926727295,5.778872966766357,-2.6250202655792236,0
2240360,2024-02-06 10:25:41.430657,-6.104308605194092,5.123216152191162,-3.2687125205993652,0
2240436,2024-02-06 10:25:41.505610,-6.097129821777344,3.345285415649414,-4.146909713745117,0
2240512,2024-02-06 10:25:41.580615,-6.774322986602783,3.3333208560943604,-3.907618999481201,0
2240589,2024-02-06 10:25:41.670547,-4.958105564117432,3.015064239501953,-4.453201770782471,0
2240666,2024-02-06 10:25:41.745563,-8.734114646911621,5.015535354614258,-6.903539657592773,0
2240742,2024-02-06 10:25:41.820531,-7.38690710067749,6.161738395690918,-6.841324329376221,0
2240819,2024-02-06 10:25:41.895568,-5.8291239738464355,6.329241752624512,-8.48285961151123,0
2240895,2024-02-06 10:25:41.970567,-6.0325212478637695,7.30076265335083,-10.050213813781738,0
2240971,2024-02-06 10:25:42.045572,-5.587440490722656,6.326848983764648,-8.504395484924316,0
2241048,2024-02-06 10:25:42.119872,-5.513260364532471,6.55417537689209,-9.026049613952637,0
2241125,2024-02-06 10:25:42.195584,-5.312255859375,5.8554463386535645,-7.824809551239014,0
2241201,2024-02-06 10:25:42.270552,-4.228268623352051,5.79083776473999,-8.183745384216309,0
2241278,2024-02-06 10:25:42.345589,-4.113409042358398,6.817395210266113,-7.757808208465576,0
2241354,2024-02-06 10:25:42.435612,-3.6587564945220947,6.448887348175049,-5.592226028442383,0
2241430,2024-02-06 10:25:42.510452,-2.1392598152160645,6.144988059997559,-4.623098373413086,0
2241507,2024-02-06 10:25:42.585333,-1.7611804008483887,7.398871898651123,-4.524989128112793,0
2241583,2024-02-06 10:25:42.660512,-2.366586208343506,7.863095760345459,-5.776480197906494,0
2241660,2024-02-06 10:25:42.735656,-2.163188934326172,8.832223892211914,-5.544368267059326,0
2241737,2024-02-06 10:25:42.810138,-0.14357449114322662,6.956183910369873,-3.969834566116333,0
2241813,2024-02-06 10:25:42.885271,0.6389064788818359,6.039700031280518,-3.7616515159606934,0
2241889,2024-02-06 10:25:42.960339,1.462066888809204,6.939433574676514,-2.8714897632598877,0
2241966,2024-02-06 10:25:43.035424,1.8162171840667725,8.009063720703125,-2.354621648788452,0
2242042,2024-02-06 10:25:43.110510,2.1655819416046143,9.12415885925293,-1.3304568529129028,0
2242119,2024-02-06 10:25:43.200613,1.718108057975769,9.858781814575195,-1.021771788597107,0
2242196,2024-02-06 10:25:43.275381,0.7226582169532776,9.442415237426758,-0.3134709596633911,0
2242272,2024-02-06 10:25:43.350408,0.5384043455123901,9.246196746826172,0.46900999546051025,0
2242348,2024-02-06 10:25:43.425287,0.363722026348114,9.286876678466797,1.131845474243164,0
2242425,2024-02-06 10:25:43.500619,0.4259376525878906,9.303627014160156,1.229954719543457,0
2242501,2024-02-06 10:25:43.575647,-0.26561281085014343,11.497923851013184,2.4479448795318604,0
2242578,2024-02-06 10:25:43.650662,1.3184924125671387,12.050684928894043,-0.7130866050720215,0
2242655,2024-02-06 10:25:43.725326,-1.1342384815216064,6.422565460205078,-0.30868515372276306,0
2242731,2024-02-06 10:25:43.799911,0.40918728709220886,10.88533878326416,0.4737958014011383,0
2242807,2024-02-06 10:25:43.875426,-0.49772489070892334,8.803508758544922,1.5864980220794678,0
2242884,2024-02-06 10:25:43.965086,-0.23450499773025513,8.303391456604004,2.065079689025879,0
2242960,2024-02-06 10:25:44.039809,-0.284756064414978,9.162445068359375,2.7087719440460205,0
2243037,2024-02-06 10:25:44.115540,-0.48815324902534485,8.762829780578613,2.8714897632598877,0
2243114,2024-02-06 10:25:44.190521,-1.4070299863815308,9.145694732666016,1.9502201080322266,0
2243190,2024-02-06 10:25:44.265419,0.3517574965953827,9.741528511047363,4.711636066436768,0
2243266,2024-02-06 10:25:44.340567,2.002864122390747,12.82120132446289,-0.9404128789901733,0
2243343,2024-02-06 10:25:44.415553,1.0959519147872925,9.181588172912598,0.8758043646812439,0
2243419,2024-02-06 10:25:44.490528,2.8619179725646973,5.977484226226807,-0.23450499773025513,0
2243496,2024-02-06 10:25:44.565654,1.6056413650512695,10.899696350097656,0.4331163763999939,0
2243573,2024-02-06 10:25:44.639888,1.9813278913497925,9.609918594360352,1.0002355575561523,0
2243649,2024-02-06 10:25:44.729814,1.6774286031723022,8.559432029724121,1.0935590267181396,0
2243725,2024-02-06 10:25:44.805562,1.2945632934570312,9.822887420654297,1.4572809934616089,0
2243802,2024-02-06 10:25:44.880470,1.019378900527954,9.363449096679688,2.108151912689209,0
2243878,2024-02-06 10:25:44.955574,0.8542681932449341,9.21987533569336,1.8521108627319336,0
2243955,2024-02-06 10:25:45.030411,0.45943835377693176,9.554882049560547,2.227797508239746,0
2244032,2024-02-06 10:25:45.105570,1.49317467212677,12.694377899169922,2.605876922607422,0
2244108,2024-02-06 10:25:45.180574,0.3709007501602173,8.841794967651367,1.2802058458328247,0
2244184,2024-02-06 10:25:45.255642,-0.7106937170028687,6.90114688873291,0.4522596299648285,0
2244261,2024-02-06 10:25:45.330541,-0.49054616689682007,11.402207374572754,1.622391700744629,0
2244337,2024-02-06 10:25:45.405227,0.29672059416770935,8.947083473205566,2.002864122390747,0
2244414,2024-02-06 10:25:45.481069,0.47858160734176636,8.87051010131836,1.7875022888183594,0
2244491,2024-02-06 10:25:45.570831,-0.5168681740760803,9.547703742980957,2.2038683891296387,0
2244567,2024-02-06 10:25:45.645541,-0.600619912147522,9.081086158752441,2.1201164722442627,0
2244643,2024-02-06 10:25:45.719843,-0.9882710576057434,9.162445068359375,2.053115129470825,0
2244720,2024-02-06 10:25:45.795573,1.2203831672668457,10.031070709228516,3.464931011199951,0
2244796,2024-02-06 10:25:45.870304,1.6487137079238892,9.083478927612305,3.80233097076416,0
2244873,2024-02-06 10:25:45.945544,0.43790218234062195,11.52663803100586,-1.8903974294662476,0
2244950,2024-02-06 10:25:46.020509,1.4716384410858154,7.611840724945068,0.9763064980506897,0
2245026,2024-02-06 10:25:46.095629,1.524282455444336,6.968148231506348,0.14836029708385468,0
2245102,2024-02-06 10:25:46.170501,0.1722893863916397,11.837716102600098,0.7418015003204346,0
2245179,2024-02-06 10:25:46.245535,1.6463208198547363,8.719757080078125,2.0890088081359863,0
2245255,2024-02-06 10:25:46.335594,0.7537660598754883,8.743685722351074,1.8927903175354004,0
2245332,2024-02-06 10:25:46.410571,1.1055235862731934,9.361056327819824,2.0602939128875732,0
2245409,2024-02-06 10:25:46.485572,1.1246668100357056,9.241411209106445,1.531461238861084,0
2245485,2024-02-06 10:25:46.560533,0.48576033115386963,10.770479202270508,2.2038683891296387,0
2245561,2024-02-06 10:25:46.635477,0.6819788217544556,12.261260986328125,0.7537660598754883,0
2245638,2024-02-06 10:25:46.710411,-0.3302213251590729,7.370156764984131,0.9667348861694336,0
2245714,2024-02-06 10:25:46.785555,-0.8135887384414673,7.831988334655762,1.1150951385498047,0
2245791,2024-02-06 10:25:46.860517,0.07418014854192734,11.131808280944824,2.1057591438293457,0
2245868,2024-02-06 10:25:46.935372,-0.24407662451267242,8.418251037597656,2.718343496322632,0
2245944,2024-02-06 10:25:47.025517,-0.39961564540863037,8.856152534484863,2.6250202655792236,0
2246020,2024-02-06 10:25:47.100543,-0.6293348073959351,8.875295639038086,2.9815635681152344,0
2246097,2024-02-06 10:25:47.175552,-0.5120823383331299,8.954261779785156,3.141888380050659,0
2246173,2024-02-06 10:25:47.250459,-0.983485221862793,8.65514850616455,3.2974274158477783,0
2246250,2024-02-06 10:25:47.325573,-0.08853759616613388,9.317984580993652,3.864546537399292,0
2246327,2024-02-06 10:25:47.400583,0.9691277742385864,11.550567626953125,4.221089839935303,0
2246403,2024-02-06 10:25:47.475575,2.0076498985290527,12.55319595336914,2.0076498985290527,0
2246479,2024-02-06 10:25:47.550515,0.4450809061527252,6.9609694480896,0.3134709596633911,0
2246556,2024-02-06 10:25:47.625408,1.4453164339065552,6.834145545959473,0.8111958503723145,0
2246632,2024-02-06 10:25:47.700538,0.27518442273139954,11.816180229187012,0.923662543296814,0
2246708,2024-02-06 10:25:47.790632,1.739644169807434,8.559432029724121,2.0914015769958496,0
2246785,2024-02-06 10:25:47.865510,1.0672370195388794,8.968619346618652,1.710929274559021,0
2246862,2024-02-06 10:25:47.940549,1.4381377696990967,9.638633728027344,1.6247845888137817,0
2246938,2024-02-06 10:25:48.015548,0.9810923337936401,9.174409866333008,2.0196144580841064,0
2247015,2024-02-06 10:25:48.090286,0.8518753051757812,9.160052299499512,2.4910173416137695,0
2247091,2024-02-06 10:25:48.165520,0.9356270432472229,9.021263122558594,3.019850015640259,0
2247167,2024-02-06 10:25:48.240514,0.29911351203918457,12.605839729309082,2.696807384490967,0
2247244,2024-02-06 10:25:48.315598,0.5264397859573364,10.488116264343262,1.966970443725586,0
2247321,2024-02-06 10:25:48.390687,-1.1557745933532715,5.987056255340576,0.9882710576057434,0
2247397,2024-02-06 10:25:48.465535,-1.1007376909255981,10.315826416015625,1.3783150911331177,0
2247474,2024-02-06 10:25:48.555525,0.43790218234062195,10.54554557800293,2.388122320175171,0
2247550,2024-02-06 10:25:48.630555,-0.6819788217544556,8.49003791809082,2.4216229915618896,0
2247626,2024-02-06 10:25:48.705549,-1.074415683746338,8.760436058044434,2.431194543838501,0
2247703,2024-02-06 10:25:48.780525,-0.5384043455123901,9.014084815979004,2.615448474884033,0
2247780,2024-02-06 10:25:48.855212,-0.6436922550201416,8.729329109191895,3.027028799057007,0
2247857,2024-02-06 10:25:48.930333,-0.7226582169532776,9.009299278259277,2.677664041519165,0
2247933,2024-02-06 10:25:49.005539,-0.007178724277764559,9.440022468566895,3.7137932777404785,0
2248009,2024-02-06 10:25:49.080575,0.25604116916656494,12.471837043762207,2.7638089656829834,0
2248086,2024-02-06 10:25:49.155578,0.9188767075538635,10.746550559997559,2.4000868797302246,0
2248163,2024-02-06 10:25:49.230553,1.1079164743423462,8.052135467529297,0.339792937040329,0
2248239,2024-02-06 10:25:49.320470,1.622391700744629,7.8942036628723145,-0.11964540183544159,0
2248316,2024-02-06 10:25:49.395518,0.6891575455665588,10.801587104797363,1.335242748260498,0
2248392,2024-02-06 10:25:49.470478,0.7059078812599182,9.736742973327637,1.387886643409729,0
2248468,2024-02-06 10:25:49.545490,1.2586696147918701,8.600111961364746,1.5745335817337036,0
2248545,2024-02-06 10:25:49.619802,1.0863802433013916,9.447200775146484,1.4285660982131958,0
2248622,2024-02-06 10:25:49.694820,0.7681235074996948,9.64581298828125,2.1607959270477295,0
2248698,2024-02-06 10:25:49.770402,0.7298369407653809,9.588382720947266,2.278048515319824,0
2248775,2024-02-06 10:25:49.845504,0.6101915836334229,9.291662216186523,2.895418882369995,0
2248851,2024-02-06 10:25:49.920536,0.02632198855280876,11.584068298339844,1.868861198425293,0
2248927,2024-02-06 10:25:49.995198,-0.13878867030143738,10.28711223602295,1.5194966793060303,0
2249004,2024-02-06 10:25:50.085365,-1.464459776878357,7.4228010177612305,0.32543548941612244,0
2249081,2024-02-06 10:25:50.160229,0.17468228936195374,10.921232223510742,1.7922881841659546,0
2249157,2024-02-06 10:25:50.234785,-0.8088029623031616,9.121766090393066,2.732701063156128,0
2249234,2024-02-06 10:25:50.309724,-0.9260554313659668,8.657541275024414,2.2301902770996094,0
2249310,2024-02-06 10:25:50.385542,-0.5503688454627991,9.619490623474121,2.347442865371704,0
2249386,2024-02-06 10:25:50.460508,0.07657305896282196,8.384750366210938,2.9815635681152344,0
2249463,2024-02-06 10:25:50.535405,0.3350071310997009,9.157659530639648,3.7568657398223877,0
2249540,2024-02-06 10:25:50.610327,-0.059822700917720795,8.985369682312012,3.9937636852264404,0
2249616,2024-02-06 10:25:50.685533,-0.6149773597717285,8.736507415771484,3.9794061183929443,0
2249693,2024-02-06 10:25:50.760343,0.014357448555529118,11.557745933532715,4.639848709106445,0
2249769,2024-02-06 10:25:50.850494,0.43790218234062195,11.576889038085938,1.1438100337982178,0
2249845,2024-02-06 10:25:50.940528,1.5649619102478027,6.207203388214111,0.5479759573936462,0
2249922,2024-02-06 10:25:51.000511,0.3302213251590729,10.62451171875,0.5336185097694397,0
2249999,2024-02-06 10:25:51.075525,1.4764243364334106,10.483330726623535,1.2036327123641968,0
2250075,2024-02-06 10:25:51.150366,0.27518442273139954,8.33210563659668,1.1150951385498047,0
2250152,2024-02-06 10:25:51.225485,0.4546525478363037,10.27754020690918,0.7322298884391785,0
2250228,2024-02-06 10:25:51.300484,1.6176059246063232,8.463715553283691,1.6247845888137817,0
2250304,2024-02-06 10:25:51.375513,1.1246668100357056,9.621883392333984,2.366586208343506,0
2250381,2024-02-06 10:25:51.450324,-0.06700142472982407,9.085871696472168,2.615448474884033,0
2250458,2024-02-06 10:25:51.525508,0.30629223585128784,9.085871696472168,2.8786685466766357,0
2250534,2024-02-06 10:25:51.675529,-1.299349069595337,15.508437156677246,1.3113136291503906,0
2250611,2024-02-06 10:25:51.705008,0.8997334241867065,9.966462135314941,1.1438100337982178,0
2250687,2024-02-06 10:25:51.765338,-1.6582852602005005,4.390986442565918,-1.5673547983169556,0
2250763,2024-02-06 10:25:51.840518,0.4211518168449402,14.422057151794434,0.6460852026939392,0
2250840,2024-02-06 10:25:51.915482,0.04546525329351425,8.202888488769531,1.7611804008483887,0
2250916,2024-02-06 10:25:51.990492,-0.619763195514679,9.136122703552246,1.868861198425293,0
2250993,2024-02-06 10:25:52.080364,0.20579010248184204,8.722149848937988,2.4981961250305176,0
2251070,2024-02-06 10:25:52.140104,-0.29672059416770935,8.719757080078125,2.0291860103607178,0
2251146,2024-02-06 10:25:52.229748,-0.023929081857204437,9.085871696472168,1.454888105392456,0
2251222,2024-02-06 10:25:52.290313,2.0555081367492676,10.306255340576172,2.050722122192383,0
2251299,2024-02-06 10:25:52.425336,0.38765111565589905,9.255768775939941,-0.8925547003746033,0
2251375,2024-02-06 10:25:52.454979,-0.19861137866973877,7.501766681671143,-3.3261423110961914,0
2251452,2024-02-06 10:25:52.530508,-0.7370156645774841,4.816924095153809,-3.8956544399261475,0
2251529,2024-02-06 10:25:52.605469,0.6819788217544556,6.1665239334106445,-5.144752502441406,0
2251605,2024-02-06 10:25:52.680466,0.38525819778442383,5.463009357452393,-4.627884387969971,0
2251681,2024-02-06 10:25:52.755466,-1.8042527437210083,4.178017616271973,-4.814530849456787,0
2251758,2024-02-06 10:25:52.830542,-0.6532639265060425,4.481916904449463,-6.774322986602783,0
2251834,2024-02-06 10:25:52.905521,-0.6341206431388855,6.513495922088623,-8.561824798583984,0
2251911,2024-02-06 10:25:52.980472,-2.91695499420166,7.16197395324707,-8.808294296264648,0
2251988,2024-02-06 10:25:53.055472,-5.93680477142334,8.93272590637207,-15.23325252532959,0
2252064,2024-02-06 10:25:53.190462,-4.338342189788818,8.425429344177246,-7.5280890464782715,1
2252140,2024-02-06 10:25:53.220210,-1.6965718269348145,7.614233493804932,-12.12725830078125,1
2252217,2024-02-06 10:25:53.295499,-3.091637372970581,5.888947010040283,-9.308412551879883,1
2252293,2024-02-06 10:25:53.370454,-11.40699291229248,18.11910057067871,-12.85470199584961,1
2252370,2024-02-06 10:25:53.444726,1.0241646766662598,-5.001177787780762,-2.6441633701324463,1
2252447,2024-02-06 10:25:53.519684,-1.0361292362213135,7.884632110595703,2.6441633701324463,1
2252523,2024-02-06 10:25:53.624770,-7.750629425048828,4.084693908691406,3.47210955619812,1
2252600,2024-02-06 10:25:53.714727,-6.731250286102295,4.084693908691406,13.484037399291992,1
2252676,2024-02-06 10:25:53.744723,-3.4457876682281494,2.4335875511169434,10.301469802856445,1
2252752,2024-02-06 10:25:53.835464,-3.113173484802246,2.8619179725646973,7.427586555480957,1
2252829,2024-02-06 10:25:53.894774,-4.513024806976318,2.895418882369995,7.559196472167969,1
2252906,2024-02-06 10:25:53.985571,-3.787973403930664,5.369685649871826,8.822651863098145,1
2252982,2024-02-06 10:25:54.059976,-3.5103962421417236,4.553704261779785,8.423036575317383,1
2253059,2024-02-06 10:25:54.135268,-3.1299238204956055,3.7975451946258545,8.04734992980957,1
2253135,2024-02-06 10:25:54.210398,-3.6707210540771484,3.500824451446533,7.958812236785889,1
2253211,2024-02-06 10:25:54.285267,-3.6563634872436523,3.8525819778442383,8.22203254699707,1
2253288,2024-02-06 10:25:54.360122,-3.42903733253479,3.5510756969451904,8.322534561157227,1
2253365,2024-02-06 10:25:54.435311,-3.1083877086639404,3.7568657398223877,8.348855972290039,1
2253441,2024-02-06 10:25:54.510336,-3.4960386753082275,3.5917551517486572,8.22921085357666,1
2253518,2024-02-06 10:25:54.599724,-3.969834566116333,3.8884756565093994,8.808294296264648,1
2253594,2024-02-06 10:25:54.659745,-3.5103962421417236,3.4098939895629883,8.583361625671387,1
2253670,2024-02-06 10:25:54.749754,-3.189746379852295,3.414679765701294,7.824809551239014,1
2253747,2024-02-06 10:25:54.825455,-3.364428758621216,3.723365068435669,8.566611289978027,1
2253824,2024-02-06 10:25:54.900492,-3.2423903942108154,3.8741180896759033,8.573789596557617,1
2253900,2024-02-06 10:25:54.975503,-3.161031484603882,3.864546537399292,8.291426658630371,1
2253977,2024-02-06 10:25:55.065478,-3.6802926063537598,4.178017616271973,7.776951313018799,1
2254053,2024-02-06 10:25:55.124973,-3.632434368133545,4.690099716186523,8.023421287536621,1
2254129,2024-02-06 10:25:55.200413,-4.065550804138184,4.970069885253906,7.688413619995117,1
2254206,2024-02-06 10:25:55.274741,-4.115801811218262,5.508474349975586,6.934647560119629,1
2254283,2024-02-06 10:25:55.365553,-4.6972784996032715,5.879374980926514,7.62141227722168,1
2254359,2024-02-06 10:25:55.424808,-2.6082699298858643,6.71928596496582,6.939433574676514,1
2254436,2024-02-06 10:25:55.515026,-2.804488182067871,6.429744243621826,6.183274745941162,1
2254512,2024-02-06 10:25:55.590439,-2.177546262741089,7.1141157150268555,5.613762378692627,1
2254588,2024-02-06 10:25:55.665080,-2.2469406127929688,7.307941436767578,5.4773664474487305,1
2254665,2024-02-06 10:25:55.739810,-2.0890088081359863,7.74345064163208,5.888947010040283,1
2254742,2024-02-06 10:25:55.815106,-1.4357448816299438,7.733879089355469,5.250040531158447,1
2254818,2024-02-06 10:25:55.890485,-1.2921704053878784,8.549860954284668,4.000942230224609,1
2254895,2024-02-06 10:25:55.965372,-0.9284483194351196,8.502002716064453,4.111016273498535,1
2254971,2024-02-06 10:25:56.040160,-1.7157150506973267,9.222268104553223,4.20194673538208,1
2255047,2024-02-06 10:25:56.129842,-1.619998812675476,8.906403541564941,3.3835721015930176,1
2255124,2024-02-06 10:25:56.190294,-2.141652822494507,9.248589515686035,2.347442865371704,1
2255201,2024-02-06 10:25:56.279862,-3.8669395446777344,10.248825073242188,1.8784328699111938,1
2255277,2024-02-06 10:25:56.355204,-2.0267932415008545,9.48788070678711,-2.47426700592041,1
2255354,2024-02-06 10:25:56.430564,-4.982034683227539,11.07677173614502,0.758551836013794,0
2255430,2024-02-06 10:25:56.505240,-2.8403818607330322,9.423272132873535,1.8425391912460327,0
2255506,2024-02-06 10:25:56.580478,-2.4000868797302246,9.932961463928223,1.521889567375183,0
2255583,2024-02-06 10:25:56.655440,-3.0796728134155273,8.363213539123535,2.402479648590088,0
2255660,2024-02-06 10:25:56.730466,-4.199553489685059,7.776951313018799,3.058136463165283,0
2255736,2024-02-06 10:25:56.805441,-4.3048415184021,7.209832191467285,3.6659352779388428,0
2255813,2024-02-06 10:25:56.895454,-3.816688299179077,7.164366722106934,2.964813232421875,0
2255889,2024-02-06 10:25:56.955445,-3.182567834854126,6.989684581756592,3.4314301013946533,0
2255965,2024-02-06 10:25:57.044689,-5.063393592834473,6.092343807220459,3.5606472492218018,0
2256042,2024-02-06 10:25:57.120148,-5.218932628631592,7.054293155670166,4.3239850997924805,0
2256119,2024-02-06 10:25:57.195419,-4.46277379989624,6.171309947967529,3.6659352779388428,0
2256195,2024-02-06 10:25:57.270404,-5.690335273742676,7.133258819580078,3.828652858734131,0
2256272,2024-02-06 10:25:57.345407,-4.376628875732422,7.276833534240723,3.3333208560943604,0
2256348,2024-02-06 10:25:57.420210,-4.364664554595947,10.358899116516113,1.6534994840621948,0
2256424,2024-02-06 10:25:57.495428,-4.455595016479492,9.947319030761719,0.3517574965953827,0
2256501,2024-02-06 10:25:57.569964,-2.895418882369995,8.50678825378418,-0.08853759616613388,0
2256578,2024-02-06 10:25:57.660238,-0.8159816861152649,8.446965217590332,-0.2632198929786682,0
2256654,2024-02-06 10:25:57.720375,-3.5941479206085205,9.346698760986328,-0.7178724408149719,0
2256731,2024-02-06 10:25:57.825424,-1.8281817436218262,8.808294296264648,-2.3306925296783447,0
2256807,2024-02-06 10:25:57.885533,-1.6056413650512695,11.931039810180664,-1.275420069694519,0
2256883,2024-02-06 10:25:57.960337,-4.575240135192871,12.486194610595703,-2.7159507274627686,0
2256960,2024-02-06 10:25:58.035288,-2.3976938724517822,10.851838111877441,-5.123216152191162,0
2257037,2024-02-06 10:25:58.110442,-3.211282730102539,9.267732620239258,-6.156952381134033,0
2257113,2024-02-06 10:25:58.200453,-2.907383441925049,7.879846572875977,-7.748236179351807,0
2257190,2024-02-06 10:25:58.260100,-2.9528486728668213,6.604426383972168,-9.351485252380371,0
2257266,2024-02-06 10:25:58.335431,-2.268476963043213,5.845874309539795,-8.188531875610352,0
2257342,2024-02-06 10:25:58.425363,-2.8834543228149414,6.55417537689209,-7.853524208068848,0
2257419,2024-02-06 10:25:58.485774,-1.3615647554397583,6.243097305297852,-7.530481815338135,0
2257496,2024-02-06 10:25:58.575914,-1.7157150506973267,6.190453052520752,-6.3699212074279785,0
2257572,2024-02-06 10:25:58.650899,-2.017221450805664,6.877217769622803,-6.530246257781982,0
2257649,2024-02-06 10:25:58.726456,-1.3089207410812378,6.5446038246154785,-5.4869384765625,0
2257725,2024-02-06 10:25:58.800503,-1.4237803220748901,7.628591060638428,-4.1277666091918945,0
2257801,2024-02-06 10:25:58.875439,-1.0911661386489868,7.303155422210693,-3.09881591796875,0
2257878,2024-02-06 10:25:58.950394,-0.7513731122016907,8.379963874816895,-2.5340895652770996,0
2257955,2024-02-06 10:25:59.025442,-1.1079164743423462,8.099993705749512,-2.1129379272460938,0
2258031,2024-02-06 10:25:59.100415,-0.10768086463212967,8.987762451171875,-1.6487137079238892,0
2258108,2024-02-06 10:25:59.175434,0.0909305065870285,9.284482955932617,-0.5168681740760803,0
2258184,2024-02-06 10:25:59.310232,-0.4020085632801056,8.791543960571289,0.17468228936195374,0
2258260,2024-02-06 10:25:59.339862,0.7035149931907654,8.731721878051758,0.6508709788322449,0
2258337,2024-02-06 10:25:59.415294,0.19621846079826355,10.409150123596191,1.2706341743469238,0
2258414,2024-02-06 10:25:59.490445,-0.20339718461036682,10.17464542388916,1.4381377696990967,0
2258490,2024-02-06 10:25:59.565527,0.33740004897117615,9.174409866333008,1.6367491483688354,0
2258567,2024-02-06 10:25:59.639640,0.23929080367088318,8.217246055603027,1.945434331893921,0
2258643,2024-02-06 10:25:59.714712,0.7130866050720215,8.93272590637207,2.4431591033935547,0
2258719,2024-02-06 10:25:59.790428,1.021771788597107,10.332576751708984,2.4838385581970215,0
2258796,2024-02-06 10:25:59.865409,0.18425391614437103,8.841794967651367,1.995685338973999,0
2258873,2024-02-06 10:25:59.940517,0.5958341360092163,10.504866600036621,1.4022440910339355,0
2258949,2024-02-06 10:26:00.075209,-2.10097336769104,11.564925193786621,2.1799392700195312,0
2259026,2024-02-06 10:26:00.104881,-1.5888910293579102,6.582890033721924,-0.5455830693244934,0
2259102,2024-02-06 10:26:00.180430,-0.363722026348114,10.327791213989258,1.3017419576644897,0
2259178,2024-02-06 10:26:00.255299,-0.8853759765625,10.796801567077637,2.10097336769104,0
2259255,2024-02-06 10:26:00.330440,-0.7370156645774841,9.059550285339355,2.900204658508301,0
2259332,2024-02-06 10:26:00.405437,-0.8183745741844177,9.806137084960938,2.5891265869140625,0
2259408,2024-02-06 10:26:00.480165,-1.0026284456253052,8.164602279663086,2.28283429145813,0
2259485,2024-02-06 10:26:00.555417,-1.0839873552322388,7.382121562957764,4.347914218902588,0
2259561,2024-02-06 10:26:00.630282,-1.1174880266189575,9.7391357421875,3.436216115951538,0
2259637,2024-02-06 10:26:00.705362,-1.0624512434005737,9.243803977966309,3.036600351333618,0
2259714,2024-02-06 10:26:00.839830,-1.043307900428772,9.341913223266602,2.895418882369995,0
2259791,2024-02-06 10:26:00.870035,-1.0002355575561523,9.430450439453125,2.6465563774108887,0
2259867,2024-02-06 10:26:00.944810,-0.6030128598213196,5.163895606994629,-0.5120823383331299,0
2259944,2024-02-06 10:26:01.020357,-0.7800880670547485,6.862860202789307,0.7753022313117981,0
2260020,2024-02-06 10:26:01.095444,-1.2706341743469238,21.193986892700195,4.453201770782471,0
2260096,2024-02-06 10:26:01.170372,-2.0985803604125977,21.23466682434082,-1.2730270624160767,0
2260173,2024-02-06 10:26:01.245387,0.7202653288841248,9.468737602233887,-3.2830698490142822,0
2260250,2024-02-06 10:26:01.320362,1.5051392316818237,5.912876129150391,-3.7568657398223877,0
2260326,2024-02-06 10:26:01.395398,-0.11007377505302429,8.868117332458496,-2.2995846271514893,0
2260403,2024-02-06 10:26:01.470347,0.5025107264518738,8.446965217590332,-1.8401463031768799,0
2260479,2024-02-06 10:26:01.545195,0.3206496834754944,8.207674980163574,-0.9188767075538635,0
2260555,2024-02-06 10:26:01.635441,-1.2778129577636719,8.006670951843262,0.10768086463212967,0
2260632,2024-02-06 10:26:01.710398,1.246705174446106,7.228975296020508,0.5838695764541626,0
2260708,2024-02-06 10:26:01.784822,-1.131845474243164,8.396714210510254,-0.03350071236491203,0
2260785,2024-02-06 10:26:01.860367,1.0672370195388794,9.578810691833496,0.2823631465435028,0
2260862,2024-02-06 10:26:01.935479,0.5144752264022827,9.968854904174805,0.9667348861694336,0
2260938,2024-02-06 10:26:02.010178,0.4809745252132416,5.7932305335998535,1.770751953125,0
2261014,2024-02-06 10:26:02.100414,-0.588655412197113,9.174409866333008,1.4716384410858154,0
2261091,2024-02-06 10:26:02.160010,0.181861013174057,9.990391731262207,0.8351249098777771,0
2261167,2024-02-06 10:26:02.235434,-0.15553902089595795,9.432844161987305,1.6415349245071411,0
2261244,2024-02-06 10:26:02.325409,-0.42833054065704346,10.064571380615234,1.1198810338974,0
2261321,2024-02-06 10:26:02.400417,-1.2155972719192505,9.243803977966309,0.19382555782794952,0
2261397,2024-02-06 10:26:02.475432,-1.0911661386489868,9.466344833374023,0.31586387753486633,0
2261473,2024-02-06 10:26:02.550249,-0.9547703266143799,10.043035507202148,-0.11725249886512756,0
2261550,2024-02-06 10:26:02.625187,-0.5384043455123901,10.129179954528809,0.44268798828125,0
2261626,2024-02-06 10:26:02.700204,-0.8758043646812439,9.93774700164795,0.5455830693244934,0
2261703,2024-02-06 10:26:02.775537,-1.3089207410812378,8.712578773498535,0.5240468978881836,0
2261780,2024-02-06 10:26:02.850435,-1.3137065172195435,7.652520179748535,0.746587336063385,0
2261856,2024-02-06 10:26:02.925206,-1.5266753435134888,9.04519271850586,1.1462029218673706,0
2261932,2024-02-06 10:26:03.000397,-2.1392598152160645,10.162680625915527,1.2323477268218994,0
2262009,2024-02-06 10:26:03.090200,-1.8186101913452148,10.236861228942871,1.5434256792068481,0
2262085,2024-02-06 10:26:03.165261,-1.3472073078155518,9.746315002441406,2.275655508041382,0
2262162,2024-02-06 10:26:03.239982,-2.043543577194214,8.537896156311035,1.9885066747665405,0
2262239,2024-02-06 10:26:03.314625,-1.1581674814224243,7.463480472564697,1.801859736442566,0
2262315,2024-02-06 10:26:03.390365,-0.4307234585285187,7.0854010581970215,1.622391700744629,0
2262391,2024-02-06 10:26:03.465402,-1.0648441314697266,5.845874309539795,1.6941789388656616,0
2262468,2024-02-06 10:26:03.540203,-1.1222739219665527,3.364428758621216,1.3041349649429321,0
2262544,2024-02-06 10:26:03.615146,-0.08135887235403061,3.2064969539642334,-0.34697166085243225,0
2262621,2024-02-06 10:26:03.690375,-6.068414688110352,36.46552658081055,0.13878867030143738,0
2262698,2024-02-06 10:26:03.765359,4.572847366333008,15.508437156677246,0.19382555782794952,0
2262774,2024-02-06 10:26:03.855219,-2.053115129470825,14.094228744506836,2.6561279296875,0
2262850,2024-02-06 10:26:03.930197,0.3350071310997009,6.733643531799316,1.0313433408737183,0
2262927,2024-02-06 10:26:04.004624,0.47858160734176636,6.180881500244141,1.3256710767745972,0
2263003,2024-02-06 10:26:04.080463,0.5575475692749023,6.520674705505371,1.7157150506973267,0
2263080,2024-02-06 10:26:04.155383,1.0959519147872925,9.545310020446777,1.6391420364379883,0
2263157,2024-02-06 10:26:04.229738,-2.261298179626465,19.4304141998291,1.49317467212677,0
2263233,2024-02-06 10:26:04.304587,-0.9116979837417603,6.6786065101623535,1.689393162727356,0
2263309,2024-02-06 10:26:04.379637,0.8590540289878845,5.2165398597717285,0.5742979645729065,0
2263386,2024-02-06 10:26:04.454580,-0.3230426013469696,13.874080657958984,-0.1603248417377472,0
2263462,2024-02-06 10:26:04.544668,-0.8734114766120911,7.736271858215332,2.0076498985290527,0
2263539,2024-02-06 10:26:04.604611,-0.1603248417377472,9.061943054199219,1.8951832056045532,0
2263616,2024-02-06 10:26:04.694603,-0.02632198855280876,8.178959846496582,2.790130853652954,0
2263692,2024-02-06 10:26:04.769639,-1.8736470937728882,9.705635070800781,1.749215841293335,0
2263768,2024-02-06 10:26:04.844622,1.8233959674835205,10.921232223510742,5.1902174949646,0
2263845,2024-02-06 10:26:04.919639,-0.9786993861198425,13.838187217712402,0.9284483194351196,0
2263921,2024-02-06 10:26:04.995379,1.454888105392456,7.027971267700195,1.0648441314697266,0
2263998,2024-02-06 10:26:05.070326,-0.44029510021209717,8.083243370056152,1.170132040977478,0
2264075,2024-02-06 10:26:05.144665,-0.028714897111058235,11.100700378417969,1.7659661769866943,0
2264151,2024-02-06 10:26:05.220185,1.619998812675476,8.437394142150879,2.61305570602417,0
2264227,2024-02-06 10:26:05.295343,1.4213874340057373,8.662327766418457,2.2589051723480225,0
2264304,2024-02-06 10:26:05.385298,1.2060257196426392,9.069121360778809,2.601091146469116,0
2264380,2024-02-06 10:26:05.460208,0.619763195514679,9.014084815979004,2.627413034439087,0
2264457,2024-02-06 10:26:05.535220,0.11964540183544159,9.8444242477417,3.6276485919952393,0
2264534,2024-02-06 10:26:05.610219,-0.24407662451267242,13.199280738830566,3.0174570083618164,0
2264610,2024-02-06 10:26:05.685429,0.26561281085014343,9.430450439453125,0.27757734060287476,0
2264686,2024-02-06 10:26:05.760111,-0.667621374130249,5.994234561920166,1.359171748161316,0
2264763,2024-02-06 10:26:05.835344,0.25604116916656494,13.347640991210938,0.07896596938371658,0
2264839,2024-02-06 10:26:05.910197,-0.7848738431930542,7.889418125152588,1.6176059246063232,0
2264916,2024-02-06 10:26:05.985411,-0.7298369407653809,9.569239616394043,1.3160994052886963,0
2264993,2024-02-06 10:26:06.060179,-1.229954719543457,9.140909194946289,1.426173210144043,0
2265069,2024-02-06 10:26:06.149621,-0.6771929860115051,9.698456764221191,1.6917860507965088,0
2265145,2024-02-06 10:26:06.225414,-0.7202653288841248,9.483095169067383,2.3282995223999023,0
2265222,2024-02-06 10:26:06.300396,-0.6269419193267822,9.423272132873535,1.8999689817428589,0
2265298,2024-02-06 10:26:06.375168,-0.16750356554985046,8.753257751464844,2.6250202655792236,0
2265375,2024-02-06 10:26:06.450360,1.6965718269348145,9.377806663513184,3.9937636852264404,0
2265452,2024-02-06 10:26:06.525325,1.2060257196426392,11.390242576599121,-1.8903974294662476,0
2265528,2024-02-06 10:26:06.600398,1.6606782674789429,7.0854010581970215,-1.0528795719146729,0
2265604,2024-02-06 10:26:06.675330,0.24886244535446167,10.591011047363281,-0.5479759573936462,0
2265681,2024-02-06 10:26:06.765389,1.809038519859314,7.394085884094238,-0.16511066257953644,0
2265757,2024-02-06 10:26:06.824865,1.7276796102523804,8.430214881896973,-1.3759222030639648,0
2265833,2024-02-06 10:26:06.915353,1.0959519147872925,9.047585487365723,-2.304370403289795,0
2265910,2024-02-06 10:26:06.990363,0.9308412671089172,7.40365743637085,-1.1940611600875854,0
2265987,2024-02-06 10:26:07.065233,0.6460852026939392,5.704692840576172,-1.777930736541748,0
2266063,2024-02-06 10:26:07.139572,0.25843408703804016,4.6015625,-5.2524333000183105,0
2266140,2024-02-06 10:26:07.214573,-0.4259376525878906,5.795623302459717,-4.960498332977295,0
2266216,2024-02-06 10:26:07.290322,-0.6867645978927612,5.360114097595215,-8.310569763183594,0
2266292,2024-02-06 10:26:07.365315,-1.7276796102523804,5.362506866455078,-8.298604965209961,1
2266369,2024-02-06 10:26:07.440329,-0.7513731122016907,3.3883578777313232,-9.700849533081055,1
2266446,2024-02-06 10:26:07.515342,-0.26561281085014343,4.989213466644287,-10.772871971130371,1
2266523,2024-02-06 10:26:07.590332,-8.186138153076172,4.862389087677002,-14.338305473327637,1
2266599,2024-02-06 10:26:07.680313,-2.6656997203826904,4.5919904708862305,-11.442886352539062,1
2266675,2024-02-06 10:26:07.755377,-3.6013267040252686,3.9817991256713867,-6.807823657989502,1
2266752,2024-02-06 10:26:07.830309,-1.8210030794143677,8.786758422851562,-5.290719985961914,1
2266829,2024-02-06 10:26:07.905315,-6.140202045440674,7.427586555480957,-7.272047519683838,1
2266905,2024-02-06 10:26:07.980329,-4.680528163909912,9.554882049560547,-8.470894813537598,1
2266982,2024-02-06 10:26:08.055328,-3.457752227783203,4.577633380889893,-0.06460852175951004,1
2267058,2024-02-06 10:26:08.130375,-0.708300769329071,5.534796237945557,2.790130853652954,1
2267134,2024-02-06 10:26:08.205306,-3.6085054874420166,4.9006757736206055,4.903068542480469,1
2267211,2024-02-06 10:26:08.280342,-5.4342942237854,4.8384599685668945,10.002355575561523,1
2267288,2024-02-06 10:26:08.355373,-3.900440216064453,-0.5814766883850098,10.045428276062012,1
2267364,2024-02-06 10:26:08.490306,-5.915268898010254,-1.2060257196426392,11.959754943847656,1
2267441,2024-02-06 10:26:08.520147,-5.604190826416016,-6.850895881652832,9.411307334899902,1
2267517,2024-02-06 10:26:08.595350,-3.273498296737671,-2.191903829574585,8.918368339538574,1
2267593,2024-02-06 10:26:08.669971,-3.4122869968414307,0.14836029708385468,9.710420608520508,1
2267670,2024-02-06 10:26:08.744595,-2.4838385581970215,0.9763064980506897,9.590775489807129,1
2267747,2024-02-06 10:26:08.819580,-1.3711363077163696,1.306527853012085,9.674527168273926,1
2267823,2024-02-06 10:26:08.894604,-1.6846072673797607,0.5431901216506958,9.511809349060059,1
2267900,2024-02-06 10:26:08.969582,-1.4237803220748901,0.5120823383331299,8.817866325378418,1
2267976,2024-02-06 10:26:09.044577,-1.2945632934570312,0.8686256408691406,9.542917251586914,1
2268052,2024-02-06 10:26:09.135348,-1.710929274559021,0.4020085632801056,10.01671314239502,1
2268129,2024-02-06 10:26:09.195223,-1.2514909505844116,-0.31586387753486633,9.758278846740723,1
2268206,2024-02-06 10:26:09.285175,-1.3519930839538574,-1.0026284456253052,10.313433647155762,1
2268282,2024-02-06 10:26:09.360332,-1.1892752647399902,-0.2727915346622467,10.401971817016602,1
2268359,2024-02-06 10:26:09.435297,-0.8614469170570374,1.4668526649475098,10.248825073242188,1
2268435,2024-02-06 10:26:09.510331,-0.6843717098236084,2.359407424926758,9.794173240661621,1
2268511,2024-02-06 10:26:09.584539,-0.7202653288841248,2.907383441925049,8.997334480285645,1
2268588,2024-02-06 10:26:09.659558,-1.6032484769821167,2.931312322616577,8.580968856811523,1
2268665,2024-02-06 10:26:09.734591,-1.139024257659912,3.153852939605713,8.13349437713623,1
2268741,2024-02-06 10:26:09.809798,-1.2730270624160767,3.8884756565093994,8.736507415771484,1
2268818,2024-02-06 10:26:09.885336,-1.9813278913497925,4.9437479972839355,8.9590482711792,1
2268894,2024-02-06 10:26:10.019945,-1.4142086505889893,5.276362419128418,8.155031204223633,1
2268970,2024-02-06 10:26:10.049755,-1.5697476863861084,5.814766883850098,7.6908063888549805,1
2269047,2024-02-06 10:26:10.125337,-1.4381377696990967,6.15455961227417,7.030364036560059,1
2269124,2024-02-06 10:26:10.200326,-1.3017419576644897,6.444101333618164,6.965755462646484,1
2269200,2024-02-06 10:26:10.290352,-0.7250511646270752,6.870038986206055,6.221560955047607,1
2269277,2024-02-06 10:26:10.350334,-0.746587336063385,7.494588375091553,6.039700031280518,1
2269353,2024-02-06 10:26:10.425302,-0.40679436922073364,8.092815399169922,5.025106906890869,1
2269429,2024-02-06 10:26:10.500287,0.2632198929786682,8.633612632751465,4.752315521240234,1
2269506,2024-02-06 10:26:10.575296,0.03828652948141098,8.580968856811523,4.328770637512207,1
2269583,2024-02-06 10:26:10.665295,0.46900999546051025,8.49960994720459,3.68986439704895,1
2269660,2024-02-06 10:26:10.724923,0.014357448555529118,8.947083473205566,3.1251380443573,1
2269736,2024-02-06 10:26:10.815332,-0.8159816861152649,9.353878021240234,2.58673357963562,1
2269812,2024-02-06 10:26:10.890300,-1.359171748161316,9.205517768859863,1.8425391912460327,1
2269889,2024-02-06 10:26:10.965333,-2.8212387561798096,9.428057670593262,1.6558923721313477,1
2269965,2024-02-06 10:26:11.042365,-1.8162171840667725,9.777422904968262,2.053115129470825,1
2270041,2024-02-06 10:26:11.114579,-2.9193477630615234,9.030835151672363,1.7157150506973267,1
2270118,2024-02-06 10:26:11.190338,-4.290484428405762,8.470894813537598,2.5556259155273438,1
2270195,2024-02-06 10:26:11.265312,-3.5941479206085205,8.954261779785156,2.6561279296875,1
2270271,2024-02-06 10:26:11.340356,-3.8190813064575195,8.908797264099121,2.340264081954956,1
2270348,2024-02-06 10:26:11.430150,-3.682685613632202,9.085871696472168,3.843010425567627,1
2270424,2024-02-06 10:26:11.490070,-3.9794061183929443,8.174174308776855,2.0698654651641846,1
2270500,2024-02-06 10:26:11.580802,-2.852346420288086,8.714971542358398,1.0935590267181396,1
2270577,2024-02-06 10:26:11.655237,-2.6321988105773926,9.64581298828125,0.3134709596633911,1
2270654,2024-02-06 10:26:11.730124,-3.3907508850097656,10.81594467163086,0.4809745252132416,1
2270730,2024-02-06 10:26:11.805229,-3.3835721015930176,11.356741905212402,-1.0935590267181396,1
2270807,2024-02-06 10:26:11.880583,-3.9937636852264404,10.54554557800293,0.7872667908668518,0
2270883,2024-02-06 10:26:11.955197,-2.6082699298858643,9.172017097473145,2.479052782058716,0
2270959,2024-02-06 10:26:12.030301,-3.744901180267334,7.102151393890381,2.3570144176483154,0
2271036,2024-02-06 10:26:12.105294,-4.249804973602295,6.247882843017578,3.0174570083618164,0
2271113,2024-02-06 10:26:12.195300,-2.263690948486328,8.164602279663086,3.3117847442626953,0
2271189,2024-02-06 10:26:12.255263,-4.252197742462158,8.16699504852295,1.4142086505889893,0
2271266,2024-02-06 10:26:12.344556,-4.07990837097168,7.949240684509277,2.703986167907715,0
2271342,2024-02-06 10:26:12.420235,-5.317041873931885,6.558960914611816,1.801859736442566,0
2271418,2024-02-06 10:26:12.495332,-6.018163681030273,7.705163955688477,0.5838695764541626,0
2271495,2024-02-06 10:26:12.570238,-6.51828145980835,6.838931560516357,1.9526129961013794,0
2271572,2024-02-06 10:26:12.645264,-6.1976318359375,6.999256134033203,1.2586696147918701,0
2271648,2024-02-06 10:26:12.720289,-6.551782131195068,7.446730136871338,1.3854937553405762,0
2271725,2024-02-06 10:26:12.795277,-6.530246257781982,7.128473281860352,0.39004403352737427,0
2271801,2024-02-06 10:26:12.870240,-5.922447681427002,7.434765338897705,-0.2225404530763626,0
2271877,2024-02-06 10:26:12.960289,-5.068179130554199,8.485252380371094,-1.7898952960968018,0
2271954,2024-02-06 10:26:13.020086,-5.001177787780762,9.155266761779785,-3.0533506870269775,0
2272031,2024-02-06 10:26:13.110271,-3.878904104232788,9.174409866333008,-2.902597427368164,0
2272107,2024-02-06 10:26:13.185312,-3.091637372970581,8.94229793548584,-3.596540927886963,0
2272184,2024-02-06 10:26:13.260121,-1.4213874340057373,8.60250473022461,-4.481916904449463,0
2272260,2024-02-06 10:26:13.335295,-2.7566301822662354,8.31535530090332,-3.955476999282837,0
2272336,2024-02-06 10:26:13.410296,-0.8159816861152649,9.679313659667969,-6.051664352416992,0
2272413,2024-02-06 10:26:13.485118,-0.7992312908172607,12.859488487243652,-8.667113304138184,0
2272490,2024-02-06 10:26:13.560260,-0.9739136099815369,10.07892894744873,-6.972934246063232,0
2272566,2024-02-06 10:26:13.635288,-0.7729093432426453,8.13349437713623,-6.1234517097473145,0
2272643,2024-02-06 10:26:13.725235,-0.9978426694869995,8.312962532043457,-6.704928398132324,0
2272719,2024-02-06 10:26:13.785330,0.29672059416770935,8.463715553283691,-6.984898567199707,0
2272795,2024-02-06 10:26:13.875287,-0.11725249886512756,8.346463203430176,-6.834145545959473,0
2272872,2024-02-06 10:26:13.950268,-0.8638398051261902,8.217246055603027,-6.128237724304199,0
2272949,2024-02-06 10:26:14.025286,-1.110309362411499,8.250746726989746,-6.010984897613525,0
2273025,2024-02-06 10:26:14.099529,-0.8662327527999878,7.398871898651123,-4.886318206787109,0
2273102,2024-02-06 10:26:14.174523,-0.14596739411354065,6.733643531799316,-3.589362144470215,0
2273178,2024-02-06 10:26:14.250295,-0.14836029708385468,6.453673362731934,-3.4888598918914795,0
2273254,2024-02-06 10:26:14.325306,-1.021771788597107,7.171545505523682,-3.0389933586120605,0
2273331,2024-02-06 10:26:14.415259,-1.7731448411941528,8.202888488769531,-3.476895570755005,0
2273408,2024-02-06 10:26:14.474864,-1.7516087293624878,8.540288925170898,-0.6412993669509888,0
2273484,2024-02-06 10:26:14.550289,-1.404637098312378,8.272283554077148,-0.20818300545215607,0
2273561,2024-02-06 10:26:14.639466,-1.356778860092163,9.736742973327637,0.521653950214386,0
2273637,2024-02-06 10:26:14.714546,-0.9786993861198425,8.636005401611328,1.0074143409729004,0
2273713,2024-02-06 10:26:14.790294,-1.1294525861740112,8.66472053527832,1.8951832056045532,0
2273790,2024-02-06 10:26:14.865292,-1.6558923721313477,9.195945739746094,2.024400234222412,0
2273867,2024-02-06 10:26:14.940368,-0.6245490312576294,9.260554313659668,2.5556259155273438,0
2273944,2024-02-06 10:26:15.015249,-0.18903973698616028,11.024127960205078,0.8710185289382935,0
2274020,2024-02-06 10:26:15.089944,1.6343562602996826,12.517302513122559,0.9619490504264832,0
2274096,2024-02-06 10:26:15.165307,0.7035149931907654,9.92099666595459,-0.44029510021209717,0
2274173,2024-02-06 10:26:15.255236,1.7587873935699463,7.769772529602051,-0.4044014811515808,0
2274250,2024-02-06 10:26:15.315334,1.5075321197509766,9.8444242477417,0.3038993179798126,0
2274326,2024-02-06 10:26:15.405253,1.5553902387619019,9.475915908813477,0.31825676560401917,0
2274403,2024-02-06 10:26:15.480261,0.9308412671089172,8.906403541564941,1.3807079792022705,0
2274479,2024-02-06 10:26:15.555266,0.0,9.337127685546875,1.6271774768829346,0
2274555,2024-02-06 10:26:15.630255,0.2225404530763626,8.978191375732422,2.158403158187866,0
2274632,2024-02-06 10:26:15.704542,0.8040171265602112,9.65299129486084,1.3974583148956299,0
2274708,2024-02-06 10:26:15.779451,-1.3160994052886963,12.010005950927734,4.302448749542236,0
2274785,2024-02-06 10:26:15.855036,1.239526391029358,11.880788803100586,-0.7848738431930542,0
2274862,2024-02-06 10:26:15.929700,-1.4405306577682495,5.431901454925537,-0.3326142132282257,0
2274938,2024-02-06 10:26:16.019839,0.9739136099815369,11.040878295898438,0.8351249098777771,0
2275014,2024-02-06 10:26:16.080405,-0.2105759084224701,9.880317687988281,1.9693633317947388,0
2275091,2024-02-06 10:26:16.169866,-0.28714898228645325,7.884632110595703,1.6870001554489136,0
2275167,2024-02-06 10:26:16.245020,-0.30868515372276306,9.605133056640625,1.8784328699111938,0
2275244,2024-02-06 10:26:16.320228,-0.1411815732717514,9.100229263305664,2.380943536758423,0
2275321,2024-02-06 10:26:16.395236,-1.0265575647354126,9.588382720947266,1.5506044626235962,0
2275397,2024-02-06 10:26:16.470258,0.5192610621452332,8.899225234985352,3.6515777111053467,0
2275473,2024-02-06 10:26:16.545239,2.830810308456421,12.770950317382812,-1.268241286277771,0
2275550,2024-02-06 10:26:16.620225,1.6247845888137817,8.645576477050781,-0.8805902004241943,0
2275626,2024-02-06 10:26:16.695109,1.6271774768829346,8.198102951049805,0.059822700917720795,0
2275703,2024-02-06 10:26:16.769711,1.8162171840667725,9.303627014160156,0.39961564540863037,0
2275780,2024-02-06 10:26:16.860234,2.256512403488159,9.542917251586914,1.0337363481521606,0
2275856,2024-02-06 10:26:16.935260,1.1438100337982178,9.605133056640625,0.8494823575019836,0
2275932,2024-02-06 10:26:17.010034,1.1533817052841187,9.236625671386719,1.9382555484771729,0
2276009,2024-02-06 10:26:17.085270,1.464459776878357,9.310805320739746,2.141652822494507,0
2276085,2024-02-06 10:26:17.159715,1.239526391029358,9.497451782226562,2.431194543838501,0
2276162,2024-02-06 10:26:17.235278,0.7681235074996948,12.950418472290039,2.409658432006836,0
2276239,2024-02-06 10:26:17.310218,0.4929390549659729,7.9994916915893555,1.5099250078201294,0
2276315,2024-02-06 10:26:17.385215,-0.15793193876743317,7.920525550842285,0.964341938495636,0
2276391,2024-02-06 10:26:17.460027,0.1507532149553299,11.227524757385254,1.5506044626235962,0
2276468,2024-02-06 10:26:17.550288,-0.028714897111058235,7.748236179351807,1.8927903175354004,0
2276544,2024-02-06 10:26:17.625226,-0.20818300545215607,9.339520454406738,1.9334697723388672,0
2276621,2024-02-06 10:26:17.700084,-0.708300769329071,9.38498592376709,2.605876922607422,0
2276698,2024-02-06 10:26:17.775212,-0.5527617931365967,8.894439697265625,2.9552414417266846,0
2276774,2024-02-06 10:26:17.849848,-0.5431901216506958,8.9590482711792,3.1083877086639404,0
2276850,2024-02-06 10:26:17.925210,-1.4501023292541504,9.176802635192871,2.2469406127929688,0
2276927,2024-02-06 10:26:18.000215,1.6152129173278809,10.133965492248535,4.706850051879883,0
2277003,2024-02-06 10:26:18.075352,1.1127022504806519,12.04829216003418,-0.09332341700792313,0
2277080,2024-02-06 10:26:18.150212,0.9284483194351196,8.478073120117188,0.32543548941612244,0
2277157,2024-02-06 10:26:18.225273,2.5245180130004883,6.85807466506958,-0.11246667802333832,0
2277233,2024-02-06 10:26:18.315270,0.7824809551239014,11.966933250427246,0.3350071310997009,0
2277310,2024-02-06 10:26:18.390280,1.3232781887054443,9.100229263305664,1.777930736541748,0
2277386,2024-02-06 10:26:18.465253,1.4979604482650757,8.31535530090332,1.622391700744629,0
2277462,2024-02-06 10:26:18.540249,1.0887731313705444,9.538131713867188,1.2730270624160767,0
2277539,2024-02-06 10:26:18.615243,0.49772489070892334,9.39934253692627,2.361800193786621,0
2277616,2024-02-06 10:26:18.690293,0.5982270240783691,9.081086158752441,2.242154836654663,0
2277692,2024-02-06 10:26:18.779717,0.21536172926425934,11.318455696105957,2.5388755798339844,0
2277769,2024-02-06 10:26:18.839821,0.8566610813140869,11.938218116760254,0.5360113978385925,0
2277845,2024-02-06 10:26:18.915252,-0.021536173298954964,7.0160064697265625,0.7298369407653809,0
2277921,2024-02-06 10:26:18.990213,-0.5479759573936462,9.406521797180176,0.9978426694869995,0
2277998,2024-02-06 10:26:19.080255,-0.6077986359596252,10.196181297302246,1.9621846675872803,0
2278075,2024-02-06 10:26:19.155209,-1.141417145729065,7.449122905731201,2.2947988510131836,0
2278151,2024-02-06 10:26:19.230210,-0.5910483002662659,8.540288925170898,2.2230117321014404,0
2278228,2024-02-06 10:26:19.305222,-1.1198810338974,7.020792484283447,2.2852272987365723,0
2278304,2024-02-06 10:26:19.380212,-0.7059078812599182,6.044486045837402,1.6917860507965088,0
2278380,2024-02-06 10:26:19.455238,-0.5049036145210266,5.283541202545166,1.5386399030685425,0
2278457,2024-02-06 10:26:19.529744,-0.38525819778442383,6.2000250816345215,2.2876200675964355,0
2278534,2024-02-06 10:26:19.605201,2.706378936767578,9.432844161987305,2.9408841133117676,0
2278610,2024-02-06 10:26:19.679512,-0.2512553632259369,11.734821319580078,-3.780794858932495,0
2278687,2024-02-06 10:26:19.754476,-1.072022795677185,5.671192169189453,-4.82649564743042,0
2278763,2024-02-06 10:26:19.844886,1.4692455530166626,11.84968090057373,-5.369685649871826,1
2278839,2024-02-06 10:26:19.920183,-3.584576368331909,17.903738021850586,-9.681706428527832,1
2278916,2024-02-06 10:26:19.995228,-0.9954497814178467,9.607525825500488,-5.939198017120361,1
2278993,2024-02-06 10:26:20.070163,-1.4596738815307617,9.004512786865234,-7.532874584197998,1
2279069,2024-02-06 10:26:20.145184,-2.928919553756714,5.939198017120361,-6.915504455566406,1
2279146,2024-02-06 10:26:20.220158,-1.9406484365463257,5.312255859375,-8.286641120910645,1
2279222,2024-02-06 10:26:20.295193,-2.311549186706543,4.491488456726074,-13.120314598083496,1
2279298,2024-02-06 10:26:20.369609,-5.278755187988281,2.830810308456421,-8.693434715270996,1
2279375,2024-02-06 10:26:20.445182,-3.1586387157440186,-1.0265575647354126,-9.102622032165527,1
2279452,2024-02-06 10:26:20.520139,1.0839873552322388,-0.32782840728759766,-7.877453327178955,1
2279528,2024-02-06 10:26:20.610211,-3.589362144470215,-3.163424491882324,-15.47732925415039,1
2279605,2024-02-06 10:26:20.685216,3.02942156791687,-1.3113136291503906,-12.957597732543945,1
2279681,2024-02-06 10:26:20.760205,4.400557994842529,0.7896596789360046,-11.06002140045166,1
2279757,2024-02-06 10:26:20.835216,0.5384043455123901,-0.8949476480484009,-10.440258026123047,1
2279834,2024-02-06 10:26:20.910080,2.024400234222412,-1.3160994052886963,-10.153108596801758,1
2279911,2024-02-06 10:26:20.984947,2.706378936767578,-1.4357448816299438,-8.834616661071777,1
2279987,2024-02-06 10:26:21.060202,1.426173210144043,-1.6391420364379883,-9.978426933288574,1
2280064,2024-02-06 10:26:21.135051,2.1105449199676514,-0.8279461860656738,-10.602975845336914,1
2280140,2024-02-06 10:26:21.209775,1.9262909889221191,-0.5144752264022827,-11.275382995605469,1
2280216,2024-02-06 10:26:21.285035,2.6034839153289795,-0.2943277060985565,-10.674762725830078,1
2280293,2024-02-06 10:26:21.375205,2.4144442081451416,-0.46900999546051025,-10.550332069396973,1
2280370,2024-02-06 10:26:21.450221,2.782952070236206,-0.5336185097694397,-9.523774147033691,1
2280447,2024-02-06 10:26:21.525232,2.5484471321105957,0.6101915836334229,-10.064571380615234,1
2280523,2024-02-06 10:26:21.600256,1.9932924509048462,0.9786993861198425,-10.100464820861816,1
2280599,2024-02-06 10:26:21.674520,2.10097336769104,1.1964540481567383,-9.28926944732666,1
2280675,2024-02-06 10:26:21.749678,1.6080342531204224,1.1294525861740112,-8.714971542358398,1
2280752,2024-02-06 10:26:21.825280,1.3184924125671387,1.9550058841705322,-9.559667587280273,1
2280829,2024-02-06 10:26:21.899999,1.7898952960968018,2.5628044605255127,-9.770243644714355,1
2280905,2024-02-06 10:26:21.975204,1.359171748161316,2.598698139190674,-10.023892402648926,1
2280982,2024-02-06 10:26:22.050165,1.904754877090454,3.6013267040252686,-10.332576751708984,1
2281058,2024-02-06 10:26:22.140184,2.500588893890381,3.716186285018921,-9.518988609313965,1
2281135,2024-02-06 10:26:22.215190,2.318727970123291,3.5438969135284424,-8.588147163391113,1
2281211,2024-02-06 10:26:22.290193,2.684842824935913,3.3261423110961914,-7.88223934173584,1
2281288,2024-02-06 10:26:22.365215,2.03157901763916,4.000942230224609,-7.590304374694824,1
2281364,2024-02-06 10:26:22.439482,2.579555034637451,4.666170597076416,-8.123923301696777,1
2281441,2024-02-06 10:26:22.515183,3.0054924488067627,4.91264009475708,-8.207674980163574,1
2281517,2024-02-06 10:26:22.605173,3.182567834854126,5.302684307098389,-8.731721878051758,1
2281593,2024-02-06 10:26:22.665243,2.558018684387207,5.551546573638916,-7.731485843658447,1
2281670,2024-02-06 10:26:22.740183,3.675506830215454,6.367528438568115,-7.590304374694824,1
2281747,2024-02-06 10:26:22.815206,3.484074115753174,7.370156764984131,-7.401264667510986,1
2281823,2024-02-06 10:26:22.905142,3.2998201847076416,7.537660598754883,-6.372314453125,1
2281900,2024-02-06 10:26:22.980211,2.5412683486938477,7.748236179351807,-5.8913397789001465,1
2281976,2024-02-06 10:26:23.055017,2.7374868392944336,7.683628082275391,-4.958105564117432,1
2282052,2024-02-06 10:26:23.130141,2.3426570892333984,8.214853286743164,-4.429272651672363,1
2282129,2024-02-06 10:26:23.205091,2.9121692180633545,8.971012115478516,-4.048800468444824,1
2282206,2024-02-06 10:26:23.280058,2.8547394275665283,8.446965217590332,-3.821474313735962,1
2282282,2024-02-06 10:26:23.354610,2.1105449199676514,8.451751708984375,-2.6800570487976074,0
2282359,2024-02-06 10:26:23.430159,2.2445478439331055,8.877689361572266,-1.9167194366455078,0
2282435,2024-02-06 10:26:23.505177,2.4216229915618896,9.248589515686035,-1.4572809934616089,0
2282511,2024-02-06 10:26:23.580152,2.522125244140625,9.155266761779785,-1.0887731313705444,0
2282588,2024-02-06 10:26:23.670132,1.4213874340057373,9.894675254821777,-0.07418014854192734,0
2282665,2024-02-06 10:26:23.745143,1.1892752647399902,9.136122703552246,0.3709007501602173,0
2282742,2024-02-06 10:26:23.820124,1.268241286277771,8.875295639038086,0.5647262930870056,0
2282818,2024-02-06 10:26:23.895188,1.229954719543457,8.616862297058105,0.7992312908172607,0
2282894,2024-02-06 10:26:23.970088,1.3089207410812378,9.325162887573242,0.41636601090431213,0
2282970,2024-02-06 10:26:24.045168,1.2227760553359985,9.789386749267578,0.06700142472982407,0
2283047,2024-02-06 10:26:24.120108,1.148595929145813,8.21963882446289,-0.7992312908172607,0
2283124,2024-02-06 10:26:24.194438,0.8016242384910583,10.258397102355957,-0.08853759616613388,0
2283201,2024-02-06 10:26:24.269390,1.9837207794189453,11.665427207946777,-0.4546525478363037,0
2283277,2024-02-06 10:26:24.345140,-0.38765111565589905,13.354820251464844,0.260826975107193,0
2283353,2024-02-06 10:26:24.434997,-1.6391420364379883,8.109565734863281,-2.390515089035034,0
2283430,2024-02-06 10:26:24.510104,-0.5814766883850098,11.289740562438965,-1.6558923721313477,0
2283506,2024-02-06 10:26:24.585208,-0.39004403352737427,10.722620964050293,-1.3017419576644897,0
2283583,2024-02-06 10:26:24.659446,-1.179703712463379,9.83485221862793,-1.1055235862731934,0
2283660,2024-02-06 10:26:24.734891,-1.3304568529129028,9.696063995361328,-2.1392598152160645,0
2283736,2024-02-06 10:26:24.810521,-1.3687434196472168,10.236861228942871,-2.141652822494507,0
2283812,2024-02-06 10:26:24.885227,-0.8135887384414673,9.99278450012207,-2.4192299842834473,0
2283889,2024-02-06 10:26:24.959924,-1.1820966005325317,9.073907852172852,-2.5963053703308105,0
2283965,2024-02-06 10:26:25.035052,-1.9191123247146606,8.013849258422852,-3.589362144470215,0
2284041,2024-02-06 10:26:25.110158,-1.8951832056045532,8.147851943969727,-3.7353296279907227,0
2284118,2024-02-06 10:26:25.200176,-2.1607959270477295,8.351249694824219,-3.921976327896118,0
2284195,2024-02-06 10:26:25.274372,-2.536482572555542,8.408679008483887,-3.3883578777313232,0
2284271,2024-02-06 10:26:25.349907,-2.256512403488159,9.0284423828125,-2.6298060417175293,0
2284348,2024-02-06 10:26:25.425130,-1.6463208198547363,9.172017097473145,-2.010042905807495,0
2284424,2024-02-06 10:26:25.499970,-1.5458186864852905,8.722149848937988,-1.7013576030731201,0
2284500,2024-02-06 10:26:25.574420,-1.742037057876587,8.545074462890625,-0.6652284264564514,0
2284577,2024-02-06 10:26:25.649823,-1.7946810722351074,8.547467231750488,0.13400284945964813,0
2284654,2024-02-06 10:26:25.724589,-1.8856115341186523,9.198338508605957,0.7800880670547485,0
2284730,2024-02-06 10:26:25.799556,-1.9478272199630737,9.176802635192871,1.0098072290420532,0
2284807,2024-02-06 10:26:25.875129,-2.017221450805664,9.40173625946045,1.904754877090454,0
2284883,2024-02-06 10:26:25.980146,-2.0291860103607178,8.607290267944336,2.601091146469116,0
2284959,2024-02-06 10:26:26.040144,-1.2443121671676636,8.49960994720459,2.6226272583007812,0
2285036,2024-02-06 10:26:26.115149,-0.9451987147331238,8.875295639038086,3.773616075515747,0
2285113,2024-02-06 10:26:26.190108,-1.0911661386489868,11.234703063964844,2.6298060417175293,0
2285189,2024-02-06 10:26:26.264402,1.619998812675476,12.175116539001465,3.462538003921509,0
2285266,2024-02-06 10:26:26.355163,1.4788172245025635,7.657305717468262,0.7322298884391785,0
2285342,2024-02-06 10:26:26.414603,1.2443121671676636,8.021027565002441,0.746587336063385,0
2285418,2024-02-06 10:26:26.489926,0.679585874080658,11.497923851013184,1.3687434196472168,0
2285495,2024-02-06 10:26:26.565151,1.2347406148910522,8.399106979370117,1.9765421152114868,0
2285572,2024-02-06 10:26:26.639815,0.4020085632801056,8.693434715270996,1.5960696935653687,0
2285648,2024-02-06 10:26:26.730111,0.17946811020374298,9.526166915893555,2.261298179626465,0
2285725,2024-02-06 10:26:26.804901,0.7202653288841248,8.994941711425781,2.593912363052368,0
2285801,2024-02-06 10:26:26.880148,1.1653462648391724,8.748472213745117,2.5891265869140625,0
2285877,2024-02-06 10:26:26.955172,1.4764243364334106,8.748472213745117,2.529303789138794,0
2285954,2024-02-06 10:26:27.030150,1.0145930051803589,11.488351821899414,0.34936457872390747,0
2286031,2024-02-06 10:26:27.105126,-1.3400285243988037,11.892753601074219,-0.39722275733947754,0
2286107,2024-02-06 10:26:27.179886,-1.6343562602996826,8.86333179473877,-0.41636601090431213,0
2286184,2024-02-06 10:26:27.255119,-1.3184924125671387,10.01671314239502,-0.014357448555529118,0
2286260,2024-02-06 10:26:27.330141,-2.1464385986328125,9.38498592376709,0.08375178277492523,0
2286336,2024-02-06 10:26:27.404974,-0.8781972527503967,9.784601211547852,0.5958341360092163,0
2286413,2024-02-06 10:26:27.495139,-0.18903973698616028,9.294054985046387,1.5290682315826416,0
2286490,2024-02-06 10:26:27.570102,-1.0074143409729004,8.927940368652344,2.2110471725463867,0
2286566,2024-02-06 10:26:27.645101,-1.2251689434051514,8.408679008483887,2.5604116916656494,0
2286643,2024-02-06 10:26:27.720071,-1.710929274559021,9.01887035369873,2.3354783058166504,0
2286719,2024-02-06 10:26:27.795104,-0.32782840728759766,9.712814331054688,4.558489799499512,0
2286795,2024-02-06 10:26:27.870018,-2.002864122390747,13.306962013244629,4.448416233062744,0
2286872,2024-02-06 10:26:27.945102,0.2225404530763626,11.081557273864746,0.0047858161851763725,0
2286949,2024-02-06 10:26:28.020076,1.356778860092163,7.073436260223389,-0.9763064980506897,0
2287025,2024-02-06 10:26:28.095143,-0.16511066257953644,10.217717170715332,1.0696299076080322,0
2287102,2024-02-06 10:26:28.170094,0.1722893863916397,9.719992637634277,1.5458186864852905,0
2287178,2024-02-06 10:26:28.260107,-0.10289505124092102,8.250746726989746,1.6152129173278809,0
2287254,2024-02-06 10:26:28.335145,0.48815324902534485,10.083714485168457,1.799466848373413,0
2287331,2024-02-06 10:26:28.410120,0.46900999546051025,8.963833808898926,2.7494513988494873,0
2287408,2024-02-06 10:26:28.485117,0.4450809061527252,8.439786911010742,2.8140599727630615,0
2287484,2024-02-06 10:26:28.559410,0.29911351203918457,9.148087501525879,2.957634449005127,0
2287561,2024-02-06 10:26:28.635122,-0.2512553632259369,9.502238273620605,3.9171905517578125,0
2287637,2024-02-06 10:26:28.709885,-1.5769264698028564,12.900167465209961,1.7037506103515625,0
2287714,2024-02-06 10:26:28.785182,-1.9693633317947388,8.224425315856934,1.177310824394226,0
2287791,2024-02-06 10:26:28.859996,-1.4501023292541504,7.018399238586426,0.8231604099273682,0
2287867,2024-02-06 10:26:28.935135,-0.4737958014011383,11.959754943847656,0.2727915346622467,0
2287944,2024-02-06 10:26:29.025120,-1.7946810722351074,7.487409591674805,2.024400234222412,0
2288020,2024-02-06 10:26:29.100143,-0.7489802241325378,9.160052299499512,2.4335875511169434,0
2288096,2024-02-06 10:26:29.175089,-0.667621374130249,8.920761108398438,2.866703987121582,0
2288173,2024-02-06 10:26:29.249353,-0.5384043455123901,8.487645149230957,3.1490671634674072,0
2288250,2024-02-06 10:26:29.324571,-1.0600582361221313,9.404129028320312,3.814295530319214,0
2288326,2024-02-06 10:26:29.399407,0.3302213251590729,13.079635620117188,4.6685638427734375,0
2288403,2024-02-06 10:26:29.474601,0.028714897111058235,11.725249290466309,1.514710783958435,0
2288479,2024-02-06 10:26:29.549393,1.0552724599838257,6.322062969207764,0.11485958844423294,0
2288555,2024-02-06 10:26:29.624686,-0.1603248417377472,9.320377349853516,1.0696299076080322,0
2288632,2024-02-06 10:26:29.714341,0.8949476480484009,9.99278450012207,1.2036327123641968,0
2288708,2024-02-06 10:26:29.774546,0.4761887192726135,8.578575134277344,1.8281817436218262,0
2288785,2024-02-06 10:26:29.865119,0.3732936680316925,9.569239616394043,2.191903829574585,0
2288862,2024-02-06 10:26:29.939823,0.37807947397232056,9.033227920532227,2.598698139190674,0
2288938,2024-02-06 10:26:30.015080,0.09332341700792313,9.152873039245605,2.6226272583007812,0
2289014,2024-02-06 10:26:30.089795,0.6149773597717285,9.183980941772461,2.936098337173462,0
2289091,2024-02-06 10:26:30.165098,-0.9069121479988098,9.959283828735352,4.898283004760742,0
2289167,2024-02-06 10:26:30.240109,-0.9116979837417603,11.947790145874023,1.2443121671676636,0
2289244,2024-02-06 10:26:30.315070,-2.227797508239746,6.470423698425293,0.600619912147522,0
2289321,2024-02-06 10:26:30.390104,-1.0002355575561523,9.538131713867188,2.017221450805664,0
2289397,2024-02-06 10:26:30.465135,-0.6412993669509888,10.392399787902832,2.2182257175445557,0
2289473,2024-02-06 10:26:30.555079,-1.8042527437210083,7.138044834136963,2.7781662940979004,0
2289550,2024-02-06 10:26:30.630063,-0.8040171265602112,9.901853561401367,2.811666965484619,0
2289626,2024-02-06 10:26:30.705101,-1.0935590267181396,8.56900405883789,3.070101022720337,0
2289703,2024-02-06 10:26:30.795069,-1.3639576435089111,8.399106979370117,3.4410018920898438,0
2289780,2024-02-06 10:26:30.855071,-0.4450809061527252,9.724778175354004,3.548682689666748,0
2289856,2024-02-06 10:26:30.930091,1.4309589862823486,11.895146369934082,5.608976364135742,0
2289932,2024-02-06 10:26:31.005107,-0.8949476480484009,9.39934253692627,1.1916682720184326,0
2290009,2024-02-06 10:26:31.080097,0.5838695764541626,6.018163681030273,0.7346227765083313,0
2290085,2024-02-06 10:26:31.155038,0.1698964685201645,10.308648109436035,1.6558923721313477,0
2290162,2024-02-06 10:26:31.230090,-0.35893622040748596,10.071749687194824,2.7303080558776855,0
2290239,2024-02-06 10:26:31.320051,-0.569512128829956,7.958812236785889,2.692021608352661,0
2290315,2024-02-06 10:26:31.410093,0.0023929080925881863,9.708027839660645,1.8329676389694214,0
2290391,2024-02-06 10:26:31.515073,0.5264397859573364,9.179195404052734,2.3450498580932617,0
2290468,2024-02-06 10:26:31.544577,0.3924369215965271,8.521145820617676,2.670485496520996,0
2290544,2024-02-06 10:26:31.620056,0.1507532149553299,9.04519271850586,2.98634934425354,0
2290621,2024-02-06 10:26:31.695082,-0.45704543590545654,9.65299129486084,3.3979294300079346,0
2290698,2024-02-06 10:26:31.770041,-0.16511066257953644,14.18276596069336,2.3522286415100098,0
2290774,2024-02-06 10:26:31.845116,-0.7681235074996948,8.140673637390137,1.072022795677185,0
2290850,2024-02-06 10:26:31.920028,-1.7252867221832275,6.345992088317871,-1.3424214124679565,0
2290927,2024-02-06 10:26:32.040081,0.3038993179798126,14.041584968566895,1.4285660982131958,0
2291003,2024-02-06 10:26:32.069898,-1.0074143409729004,7.676449298858643,2.4718739986419678,0
2291080,2024-02-06 10:26:32.160095,-0.7250511646270752,7.733879089355469,1.6032484769821167,0
2291157,2024-02-06 10:26:32.235093,-0.26800569891929626,10.509652137756348,1.9382555484771729,0
2291233,2024-02-06 10:26:32.309746,-0.8327320218086243,8.368000030517578,3.381179094314575,0
2291309,2024-02-06 10:26:32.385109,-0.9428057670593262,8.827438354492188,2.536482572555542,0
2291386,2024-02-06 10:26:32.460091,-1.7013576030731201,9.033227920532227,3.0796728134155273,0
2291462,2024-02-06 10:26:32.534376,-0.5144752264022827,12.431157112121582,3.653970718383789,0
2291539,2024-02-06 10:26:32.609345,0.9547703266143799,12.282796859741211,1.9526129961013794,0
2291616,2024-02-06 10:26:32.685152,1.7444299459457397,6.645105838775635,-0.14357449114322662,0
2291692,2024-02-06 10:26:32.760044,0.9810923337936401,9.346698760986328,0.9260554313659668,0
2291768,2024-02-06 10:26:32.834941,0.9284483194351196,10.100464820861816,1.2945632934570312,0
2291845,2024-02-06 10:26:32.925100,1.0050214529037476,8.14306640625,1.9885066747665405,0
2291921,2024-02-06 10:26:33.000143,0.7370156645774841,9.435236930847168,2.261298179626465,0
2291998,2024-02-06 10:26:33.075073,0.49772489070892334,8.935118675231934,2.6537351608276367,0
2292075,2024-02-06 10:26:33.149916,0.07896596938371658,9.038013458251953,2.7518444061279297,0
2292151,2024-02-06 10:26:33.225057,0.5144752264022827,8.951869010925293,2.873882532119751,0
2292228,2024-02-06 10:26:33.300145,-2.0555081367492676,9.899460792541504,4.656599044799805,0
2292304,2024-02-06 10:26:33.374904,1.0169858932495117,13.749650001525879,-1.299349069595337,0
2292380,2024-02-06 10:26:33.450123,-0.6077986359596252,6.180881500244141,0.5814766883850098,0
2292457,2024-02-06 10:26:33.525036,0.13639576733112335,8.896832466125488,2.045936346054077,0
2292534,2024-02-06 10:26:33.600061,-0.6508709788322449,10.827909469604492,1.3519930839538574,0
2292610,2024-02-06 10:26:33.690119,-0.7226582169532776,7.537660598754883,1.8281817436218262,0
2292687,2024-02-06 10:26:33.765134,-0.7776951193809509,9.420879364013672,1.7085363864898682,0
2292763,2024-02-06 10:26:33.840101,-0.7370156645774841,8.825044631958008,1.8257888555526733,0
2292839,2024-02-06 10:26:33.915042,-0.6293348073959351,8.640790939331055,1.2323477268218994,0
2292916,2024-02-06 10:26:33.989893,0.3421858549118042,9.92099666595459,2.263690948486328,0
2292993,2024-02-06 10:26:34.065211,-0.2536482512950897,10.282325744628906,-1.9406484365463257,0
2293069,2024-02-06 10:26:34.140160,0.8518753051757812,9.803744316101074,-2.91695499420166,0
2293146,2024-02-06 10:26:34.214785,-0.6748000979423523,5.719050407409668,-2.4981961250305176,0
2293222,2024-02-06 10:26:34.289219,1.4070299863815308,8.107172966003418,-3.400322437286377,0
2293298,2024-02-06 10:26:34.379290,2.0555081367492676,8.389535903930664,-4.752315521240234,1
2293375,2024-02-06 10:26:34.455000,0.18425391614437103,7.906168460845947,-5.7573370933532715,1
2293452,2024-02-06 10:26:34.529906,0.6915504336357117,7.504159927368164,-5.805194854736328,1
2293528,2024-02-06 10:26:34.605060,0.7561589479446411,4.986820697784424,-4.1205878257751465,1
2293605,2024-02-06 10:26:34.679314,-0.016750356182456017,2.627413034439087,-8.368000030517578,1
2293681,2024-02-06 10:26:34.754366,-0.9356270432472229,4.7953877449035645,-6.695356845855713,1
2293757,2024-02-06 10:26:34.829844,-0.40918728709220886,3.5295393466949463,-7.817630767822266,1
2293834,2024-02-06 10:26:34.905035,-0.46661707758903503,4.168446063995361,-8.40389347076416,1
2293911,2024-02-06 10:26:34.980035,-1.5027462244033813,4.821709632873535,-11.117450714111328,1
2293987,2024-02-06 10:26:35.055056,-5.63290548324585,5.271576404571533,-13.577360153198242,1
2294064,2024-02-06 10:26:35.145036,-1.876039981842041,3.857367753982544,-15.996590614318848,1
2294140,2024-02-06 10:26:35.220005,-9.009299278259277,2.818845748901367,-10.263182640075684,1
2294216,2024-02-06 10:26:35.310088,-2.9600272178649902,3.8047239780426025,-8.51636028289795,1
2294293,2024-02-06 10:26:35.370027,-3.919583559036255,4.962891578674316,-7.03993558883667,1
2294370,2024-02-06 10:26:35.445049,-4.792994976043701,6.245490074157715,-5.845874309539795,1
2294446,2024-02-06 10:26:35.520007,-3.1083877086639404,8.131101608276367,-5.800409317016602,1
2294523,2024-02-06 10:26:35.594998,-2.9959208965301514,7.920525550842285,-4.357485771179199,1
2294599,2024-02-06 10:26:35.669993,-9.0284423828125,13.708970069885254,-10.43547248840332,1
2294675,2024-02-06 10:26:35.744924,-2.7422726154327393,3.9315478801727295,1.1916682720184326,1
2294752,2024-02-06 10:26:35.819380,-0.39722275733947754,15.240431785583496,2.4144442081451416,1
2294829,2024-02-06 10:26:35.910019,-4.4867024421691895,6.4680304527282715,0.952377438545227,1
2294905,2024-02-06 10:26:35.984831,-4.187589168548584,8.504395484924316,2.6944146156311035,1
2294982,2024-02-06 10:26:36.059372,-4.02726411819458,6.484780788421631,3.352464199066162,1
2295058,2024-02-06 10:26:36.134576,-6.302919864654541,7.128473281860352,3.5438969135284424,1
2295134,2024-02-06 10:26:36.210116,-5.472580909729004,6.688178062438965,3.0461719036102295,1
2295211,2024-02-06 10:26:36.284799,-9.499845504760742,6.489566802978516,3.8262600898742676,1
2295288,2024-02-06 10:26:36.360038,-6.377099990844727,4.099051475524902,2.9408841133117676,1
2295364,2024-02-06 10:26:36.435073,-7.501766681671143,4.321591854095459,3.4960386753082275,1
2295441,2024-02-06 10:26:36.510047,-7.269654750823975,2.852346420288086,5.336184978485107,1
2295517,2024-02-06 10:26:36.585017,-9.138516426086426,1.2419192790985107,8.42782211303711,1
2295593,2024-02-06 10:26:36.675049,-10.301469802856445,-0.6771929860115051,7.994706153869629,1
2295670,2024-02-06 10:26:36.765024,-4.345520973205566,-3.196925163269043,7.973169803619385,1
2295747,2024-02-06 10:26:36.824281,-7.0854010581970215,-1.6152129173278809,7.147616386413574,1
2295823,2024-02-06 10:26:36.900044,-7.181117057800293,-1.4070299863815308,6.7408223152160645,1
2295900,2024-02-06 10:26:36.975034,-6.051664352416992,-0.18664683401584625,6.743215084075928,1
2295976,2024-02-06 10:26:37.049954,-6.3699212074279785,-0.1603248417377472,8.016242027282715,1
2296052,2024-02-06 10:26:37.140027,-5.022714138031006,-0.14596739411354065,8.097600936889648,1
2296129,2024-02-06 10:26:37.200027,-4.970069885253906,0.21536172926425934,7.918132781982422,1
2296206,2024-02-06 10:26:37.275104,-5.5611186027526855,-0.6412993669509888,7.9707770347595215,1
2296282,2024-02-06 10:26:37.350012,-5.814766883850098,-0.825553297996521,7.530481815338135,1
2296359,2024-02-06 10:26:37.440025,-6.51828145980835,-0.39004403352737427,7.52569580078125,1
2296435,2024-02-06 10:26:37.515028,-6.50153112411499,-0.21775463223457336,7.602269172668457,1
2296511,2024-02-06 10:26:37.590143,-6.384278774261475,0.6149773597717285,7.547232151031494,1
2296588,2024-02-06 10:26:37.665335,-6.594854831695557,0.14596739411354065,7.420407772064209,1
2296665,2024-02-06 10:26:37.740468,-6.420172214508057,-0.5120823383331299,7.602269172668457,1
2296742,2024-02-06 10:26:37.815454,-6.283776760101318,-0.5503688454627991,7.322298526763916,1
2296818,2024-02-06 10:26:37.890133,-6.109094142913818,-0.2632198929786682,7.633376598358154,1
2296894,2024-02-06 10:26:37.965010,-6.01577091217041,-0.43790218234062195,7.659698963165283,1
2296970,2024-02-06 10:26:38.040023,-6.008592128753662,-0.4044014811515808,7.753022193908691,1
2297047,2024-02-06 10:26:38.115057,-6.0253424644470215,-0.2512553632259369,7.762593746185303,1
2297124,2024-02-06 10:26:38.204914,-5.8554463386535645,-0.16271774470806122,7.741057872772217,1
2297200,2024-02-06 10:26:38.280034,-5.982270240783691,-0.24407662451267242,7.88223934173584,1
2297277,2024-02-06 10:26:38.355022,-5.8913397789001465,-0.47858160734176636,7.843952655792236,1
2297353,2024-02-06 10:26:38.430059,-5.7238359451293945,-0.6389064788818359,7.9779558181762695,1
2297430,2024-02-06 10:26:38.505039,-5.975091457366943,-0.1005021408200264,7.9085612297058105,1
2297506,2024-02-06 10:26:38.580019,-6.106701374053955,-0.20818300545215607,7.827202320098877,1
2297583,2024-02-06 10:26:38.655003,-5.93680477142334,-0.4714028835296631,7.738664627075195,1
2297660,2024-02-06 10:26:38.729786,-5.939198017120361,-0.4331163763999939,7.633376598358154,1
2297736,2024-02-06 10:26:38.805006,-5.788444519042969,-0.5431901216506958,7.5568037033081055,1
2297812,2024-02-06 10:26:38.880012,-5.910482883453369,-0.29911351203918457,7.645341396331787,1
2297889,2024-02-06 10:26:38.969965,-6.202417850494385,-0.059822700917720795,7.552018165588379,1
2297965,2024-02-06 10:26:39.044777,-6.575711250305176,0.4546525478363037,7.1356520652771,1
2298041,2024-02-06 10:26:39.119963,-6.37949275970459,0.48576033115386963,7.054293155670166,1
2298118,2024-02-06 10:26:39.194986,-7.365371227264404,0.9786993861198425,6.781501770019531,1
2298195,2024-02-06 10:26:39.269280,-7.441944122314453,1.2179901599884033,6.666641712188721,1
2298271,2024-02-06 10:26:39.344623,-7.3797287940979,1.1222739219665527,6.2000250816345215,1
2298348,2024-02-06 10:26:39.419888,-8.384750366210938,1.0648441314697266,5.463009357452393,1
2298424,2024-02-06 10:26:39.495053,-8.67189884185791,1.6582852602005005,5.137573719024658,1
2298500,2024-02-06 10:26:39.569767,-8.425429344177246,1.359171748161316,4.443630218505859,1
2298577,2024-02-06 10:26:39.644193,-8.554646492004395,1.4716384410858154,5.137573719024658,1
2298654,2024-02-06 10:26:39.734273,-8.461322784423828,1.9382555484771729,5.3649001121521,1
2298730,2024-02-06 10:26:39.809792,-8.07127857208252,1.9765421152114868,5.381650447845459,1
2298807,2024-02-06 10:26:39.884208,-7.834381103515625,2.151224374771118,4.946141242980957,0
2298883,2024-02-06 10:26:39.959875,-8.286641120910645,2.837989091873169,5.0059638023376465,0
2298959,2024-02-06 10:26:40.034331,-7.537660598754883,3.1442811489105225,4.977248668670654,0
2299036,2024-02-06 10:26:40.109995,-7.686020851135254,3.4194657802581787,5.295505523681641,0
2299113,2024-02-06 10:26:40.184976,-7.17872428894043,3.9530842304229736,5.731014728546143,0
2299189,2024-02-06 10:26:40.260011,-6.807823657989502,4.312020301818848,5.563511371612549,0
2299266,2024-02-06 10:26:40.334979,-6.3412065505981445,4.350306987762451,5.108858585357666,0
2299342,2024-02-06 10:26:40.409816,-5.865017890930176,4.879139423370361,5.032285690307617,0
2299418,2024-02-06 10:26:40.500014,-5.731014728546143,5.599404811859131,5.135180950164795,0
2299495,2024-02-06 10:26:40.575003,-5.9200544357299805,5.439080238342285,5.436686992645264,0
2299572,2024-02-06 10:26:40.650006,-5.635298728942871,5.601798057556152,5.290719985961914,0
2299648,2024-02-06 10:26:40.724971,-5.831517219543457,6.010984897613525,5.405579566955566,0
2299725,2024-02-06 10:26:40.799995,-5.40797233581543,6.262240409851074,5.1902174949646,0
2299801,2024-02-06 10:26:40.875038,-4.725993633270264,6.5804972648620605,5.417543888092041,0
2299877,2024-02-06 10:26:40.949979,-5.223718166351318,6.460851669311523,5.156716823577881,0
2299954,2024-02-06 10:26:41.025002,-4.690099716186523,6.472816467285156,4.917426109313965,0
2300031,2024-02-06 10:26:41.099976,-3.9315478801727295,6.8748250007629395,5.262004852294922,0
2300107,2024-02-06 10:26:41.174980,-3.596540927886963,6.893968105316162,5.699907302856445,0
2300184,2024-02-06 10:26:41.264981,-3.2711052894592285,7.274440765380859,5.45104455947876,0
2300260,2024-02-06 10:26:41.339978,-2.811666965484619,7.145223617553711,5.422329902648926,0
2300336,2024-02-06 10:26:41.414906,-2.8906328678131104,7.109330177307129,5.53001070022583,0
2300413,2024-02-06 10:26:41.489821,-2.6944146156311035,7.123687267303467,5.75494384765625,0
2300490,2024-02-06 10:26:41.564742,-1.718108057975769,7.571161270141602,5.714264392852783,0
2300566,2024-02-06 10:26:41.639409,-1.6750357151031494,7.877453327178955,5.307470321655273,0
2300643,2024-02-06 10:26:41.714952,-1.3687434196472168,8.04017162322998,5.458223342895508,0
2300719,2024-02-06 10:26:41.790017,-1.021771788597107,8.102386474609375,5.106465816497803,0
2300795,2024-02-06 10:26:41.864779,-1.0265575647354126,8.353642463684082,4.74752950668335,0
2300872,2024-02-06 10:26:41.940050,-0.5240468978881836,8.796330451965332,4.443630218505859,0
2300949,2024-02-06 10:26:42.029640,-1.560176134109497,8.202888488769531,4.685314178466797,0
2301025,2024-02-06 10:26:42.104928,-1.8425391912460327,8.34167766571045,4.670956611633301,0
2301102,2024-02-06 10:26:42.194971,-0.9954497814178467,8.573789596557617,5.178253173828125,0
2301178,2024-02-06 10:26:42.254960,-1.6965718269348145,7.855917453765869,5.070572376251221,0
2301254,2024-02-06 10:26:42.329988,-1.5051392316818237,7.887024879455566,5.376864433288574,0
2301331,2024-02-06 10:26:42.404975,-2.036364793777466,7.887024879455566,5.577868938446045,0
2301408,2024-02-06 10:26:42.479964,-1.3113136291503906,8.14306640625,5.099287033081055,0
2301484,2024-02-06 10:26:42.554869,-2.2876200675964355,7.82241678237915,5.4486517906188965,0
2301561,2024-02-06 10:26:42.629245,-2.3522286415100098,8.028206825256348,4.0224785804748535,0
2301637,2024-02-06 10:26:42.704960,-1.928683876991272,10.059785842895508,4.0583720207214355,0
2301714,2024-02-06 10:26:42.794964,-3.2376046180725098,8.604897499084473,3.3955366611480713,0
2301791,2024-02-06 10:26:42.869909,-3.041386127471924,9.545310020446777,3.1107804775238037,0
2301867,2024-02-06 10:26:42.944898,-3.1706032752990723,9.562060356140137,2.6226272583007812,0
2301944,2024-02-06 10:26:43.019926,-2.811666965484619,8.676684379577637,2.634591817855835,0
2302020,2024-02-06 10:26:43.094945,-3.3692145347595215,9.174409866333008,2.9767775535583496,0
2302096,2024-02-06 10:26:43.169397,-3.2376046180725098,8.978191375732422,3.0030996799468994,0
2302173,2024-02-06 10:26:43.244954,-3.6850783824920654,9.205517768859863,2.9815635681152344,0
2302250,2024-02-06 10:26:43.319887,-3.8334388732910156,9.183980941772461,3.16821026802063,0
2302326,2024-02-06 10:26:43.409961,-4.180410385131836,9.475915908813477,3.8334388732910156,0
2302403,2024-02-06 10:26:43.469819,-2.9600272178649902,7.094972610473633,2.6537351608276367,0
2302479,2024-02-06 10:26:43.559829,-4.060765266418457,6.90114688873291,0.3302213251590729,0
2302555,2024-02-06 10:26:43.634973,-5.068179130554199,6.781501770019531,2.4359803199768066,0
2302632,2024-02-06 10:26:43.709833,-6.977719783782959,4.417308330535889,2.514946460723877,0
2302708,2024-02-06 10:26:43.784905,-5.539582252502441,6.436922550201416,2.9672060012817383,0
2302785,2024-02-06 10:26:43.859932,-6.451280117034912,6.0253424644470215,2.5675904750823975,0
2302862,2024-02-06 10:26:43.934999,-6.269419193267822,7.267261981964111,3.1107804775238037,0
2302938,2024-02-06 10:26:44.009931,-7.2481184005737305,6.848503112792969,2.6800570487976074,0
2303014,2024-02-06 10:26:44.084955,-6.905932903289795,7.470659255981445,2.172760486602783,0
2303091,2024-02-06 10:26:44.159831,-5.671192169189453,8.277069091796875,1.3184924125671387,0
2303167,2024-02-06 10:26:44.234981,-5.092108249664307,9.047585487365723,1.139024257659912,0
2303244,2024-02-06 10:26:44.324966,-4.757101058959961,8.805901527404785,0.7011220455169678,0
2303321,2024-02-06 10:26:44.399139,-3.912404775619507,8.858545303344727,0.46900999546051025,0
2303397,2024-02-06 10:26:44.474161,-2.782952070236206,8.564218521118164,0.9547703266143799,0
2303473,2024-02-06 10:26:44.549933,-2.2852272987365723,8.82983112335205,0.19382555782794952,0
2303550,2024-02-06 10:26:44.624947,-2.390515089035034,9.712814331054688,-0.2943277060985565,0
2303626,2024-02-06 10:26:44.714244,-2.1607959270477295,9.806137084960938,-0.3804723918437958,0
2303703,2024-02-06 10:26:44.774162,-3.6132912635803223,9.133729934692383,-0.6054057478904724,0
2303780,2024-02-06 10:26:44.849939,-2.158403158187866,8.33210563659668,-0.8805902004241943,0
2303856,2024-02-06 10:26:44.924928,-2.024400234222412,8.662327766418457,-1.2179901599884033,0
2303932,2024-02-06 10:26:44.999946,-2.361800193786621,10.189002990722656,-1.2443121671676636,0
2304009,2024-02-06 10:26:45.089993,-2.134474039077759,13.756828308105469,-3.835831642150879,0
2304085,2024-02-06 10:26:45.164949,-2.6561279296875,11.698927879333496,-5.726229190826416,0
2304162,2024-02-06 10:26:45.239949,-0.6748000979423523,10.480937004089355,-4.278519630432129,0
2304239,2024-02-06 10:26:45.329921,-0.7896596789360046,9.344305992126465,-5.419936656951904,0
2304315,2024-02-06 10:26:45.389462,-1.4429235458374023,8.7843656539917,-5.180645942687988,0
2304391,2024-02-06 10:26:45.464962,-1.1605603694915771,8.123923301696777,-5.183038711547852,0
2304468,2024-02-06 10:26:45.539997,-1.5434256792068481,8.351249694824219,-6.247882843017578,0
2304544,2024-02-06 10:26:45.614797,-0.15553902089595795,9.361056327819824,-5.159110069274902,0
2304621,2024-02-06 10:26:45.689946,-0.12682412564754486,9.140909194946289,-4.967677116394043,0
2304698,2024-02-06 10:26:45.764930,-0.5455830693244934,8.356035232543945,-5.1112518310546875,0
2304774,2024-02-06 10:26:45.854941,-0.17707519233226776,8.169387817382812,-2.8212387561798096,0
2304850,2024-02-06 10:26:45.929971,-0.5360113978385925,7.552018165588379,-2.938491106033325,0
2304927,2024-02-06 10:26:46.004913,-0.03110780566930771,7.745843410491943,-2.3211207389831543,0
2305003,2024-02-06 10:26:46.079939,-0.5814766883850098,8.554646492004395,-1.6271774768829346,0
2305080,2024-02-06 10:26:46.154901,-0.9571632146835327,6.606819152832031,-0.7059078812599182,0
2305157,2024-02-06 10:26:46.229905,-0.7513731122016907,7.724307537078857,-0.35654330253601074,0
2305233,2024-02-06 10:26:46.304807,-0.923662543296814,9.602740287780762,1.1509888172149658,0
2305309,2024-02-06 10:26:46.379911,-0.5862624645233154,10.028677940368652,1.847325086593628,0
2305386,2024-02-06 10:26:46.469890,-0.6173703074455261,9.002120018005371,1.6343562602996826,0
2305462,2024-02-06 10:26:46.529910,-1.2132043838500977,9.29644775390625,2.7949166297912598,0
2305539,2024-02-06 10:26:46.619857,-0.6077986359596252,9.2725191116333,2.804488182067871,0
2305616,2024-02-06 10:26:46.694915,-0.4235447347164154,9.341913223266602,3.3763933181762695,0
2305692,2024-02-06 10:26:46.769879,-0.2512553632259369,9.92099666595459,3.4410018920898438,0
2305768,2024-02-06 10:26:46.844336,-0.509689450263977,9.861174583435059,1.4764243364334106,0
2305845,2024-02-06 10:26:46.919878,0.5431901216506958,11.375885009765625,2.4479448795318604,0
2305921,2024-02-06 10:26:46.994758,0.4020085632801056,8.887260437011719,0.4929390549659729,0
2305998,2024-02-06 10:26:47.069859,0.8590540289878845,8.183745384216309,0.540797233581543,0
2306075,2024-02-06 10:26:47.144906,0.13878867030143738,10.17464542388916,1.416601538658142,0
2306151,2024-02-06 10:26:47.219786,0.3541503846645355,9.069121360778809,1.7348583936691284,0
2306227,2024-02-06 10:26:47.294778,0.43790218234062195,8.978191375732422,2.024400234222412,0
2306304,2024-02-06 10:26:47.429951,-0.02632198855280876,9.483095169067383,2.177546262741089,0
2306380,2024-02-06 10:26:47.459372,0.21536172926425934,9.150480270385742,2.6106626987457275,0
2306457,2024-02-06 10:26:47.534805,0.20818300545215607,9.191160202026367,3.2495691776275635,0
2306534,2024-02-06 10:26:47.609902,0.8183745741844177,9.92099666595459,2.699200391769409,0
2306610,2024-02-06 10:26:47.684904,-0.765730619430542,12.153580665588379,2.859525203704834,0
2306687,2024-02-06 10:26:47.759877,-1.0098072290420532,10.167466163635254,1.612820029258728,0
2306763,2024-02-06 10:26:47.834906,-1.5793193578720093,6.312491416931152,0.2105759084224701,0
2306839,2024-02-06 10:26:47.909394,-1.1964540481567383,9.865960121154785,1.1533817052841187,0
2306916,2024-02-06 10:26:47.984966,-0.38525819778442383,10.466580390930176,2.2158329486846924,0
2306993,2024-02-06 10:26:48.059931,-1.7516087293624878,7.8032732009887695,1.8736470937728882,0
2307069,2024-02-06 10:26:48.194885,-1.6176059246063232,9.547703742980957,2.0842230319976807,0
2307146,2024-02-06 10:26:48.224348,-1.7252867221832275,9.05237102508545,2.550840139389038,0
2307222,2024-02-06 10:26:48.299924,-1.739644169807434,8.906403541564941,2.445552110671997,0
2307298,2024-02-06 10:26:48.374890,-1.3400285243988037,9.420879364013672,2.9839563369750977,0
2307375,2024-02-06 10:26:48.449880,-0.5790837407112122,9.425664901733398,3.5797905921936035,0
2307452,2024-02-06 10:26:48.524929,-1.2060257196426392,12.129651069641113,4.096658706665039,0
2307528,2024-02-06 10:26:48.600032,-0.5742979645729065,9.614705085754395,2.8762755393981934,0
2307605,2024-02-06 10:26:48.674520,-0.4737958014011383,7.133258819580078,0.7513731122016907,0
2307681,2024-02-06 10:26:48.749892,0.844696581363678,9.294054985046387,1.2562767267227173,0
2307757,2024-02-06 10:26:48.839915,0.016750356182456017,10.64126205444336,1.7540016174316406,0
2307834,2024-02-06 10:26:48.899913,-0.02632198855280876,8.770008087158203,1.8832186460494995,0
2307911,2024-02-06 10:26:48.989892,0.1914326548576355,9.076300621032715,1.7898952960968018,0
2307987,2024-02-06 10:26:49.064918,0.05264397710561752,10.083714485168457,2.0076498985290527,0
2308064,2024-02-06 10:26:49.139897,0.18425391614437103,9.291662216186523,2.7638089656829834,0
2308140,2024-02-06 10:26:49.214700,-0.15793193876743317,9.040407180786133,2.804488182067871,0
2308216,2024-02-06 10:26:49.289876,-0.4307234585285187,8.899225234985352,3.0318145751953125,0
2308293,2024-02-06 10:26:49.364886,-1.4237803220748901,10.873373985290527,4.386200428009033,0
2308370,2024-02-06 10:26:49.439984,-0.7824809551239014,10.031070709228516,0.6412993669509888,0
2308446,2024-02-06 10:26:49.514953,-1.6870001554489136,6.599640369415283,0.014357448555529118,0
2308523,2024-02-06 10:26:49.604883,-0.26800569891929626,11.990862846374512,1.56256902217865,0
2308599,2024-02-06 10:26:49.664140,0.40679436922073364,8.439786911010742,2.593912363052368,0
2308675,2024-02-06 10:26:49.754170,-0.12682412564754486,8.377571105957031,2.72552227973938,0
2308752,2024-02-06 10:26:49.829920,-0.13400284945964813,9.31319808959961,2.663306713104248,0
2308829,2024-02-06 10:26:49.904401,-0.43790218234062195,9.504631042480469,3.338106870651245,0
2308905,2024-02-06 10:26:49.979249,-1.335242748260498,8.384750366210938,4.1205878257751465,0
2308982,2024-02-06 10:26:50.054900,-0.42833054065704346,12.278011322021484,3.0054924488067627,0
2309058,2024-02-06 10:26:50.129906,-0.38525819778442383,9.92099666595459,3.2136754989624023,0
2309134,2024-02-06 10:26:50.204876,0.7537660598754883,7.769772529602051,1.3639576435089111,0
2309211,2024-02-06 10:26:50.279897,1.110309362411499,9.516595840454102,2.1464385986328125,0
2309288,2024-02-06 10:26:50.369825,1.416601538658142,10.705870628356934,1.5721405744552612,0
2309365,2024-02-06 10:26:50.429904,0.06460852175951004,8.566611289978027,1.6343562602996826,0
2309441,2024-02-06 10:26:50.519227,0.13878867030143738,9.198338508605957,0.45943835377693176,0
2309517,2024-02-06 10:26:50.594403,-0.8327320218086243,9.801351547241211,2.2660839557647705,0
2309594,2024-02-06 10:26:50.669866,-1.1294525861740112,9.363449096679688,0.5742979645729065,0
2309670,2024-02-06 10:26:50.744898,-2.268476963043213,8.820259094238281,1.612820029258728,0
2309747,2024-02-06 10:26:50.820257,-1.9167194366455078,11.840108871459961,1.5577831268310547,0
2309824,2024-02-06 10:26:50.894884,-1.6750357151031494,9.46155834197998,1.5266753435134888,0
2309900,2024-02-06 10:26:50.969821,-2.713557720184326,8.511573791503906,1.7516087293624878,0
2309976,2024-02-06 10:26:51.044840,-3.1036016941070557,9.84203052520752,1.809038519859314,0
2310053,2024-02-06 10:26:51.134950,-2.7709875106811523,8.446965217590332,2.409658432006836,0
2310129,2024-02-06 10:26:51.194892,-2.290013074874878,9.004512786865234,2.4335875511169434,0
2310206,2024-02-06 10:26:51.284966,-2.5412683486938477,8.580968856811523,2.5316967964172363,0
2310283,2024-02-06 10:26:51.359728,-2.3641932010650635,8.899225234985352,2.5053746700286865,0
2310359,2024-02-06 10:26:51.434832,-1.897576093673706,8.92554759979248,3.0724940299987793,0
2310435,2024-02-06 10:26:51.509739,-0.5049036145210266,10.272754669189453,2.6393775939941406,0
2310512,2024-02-06 10:26:51.584897,-0.5982270240783691,9.84203052520752,3.675506830215454,0
2310588,2024-02-06 10:26:51.659823,0.5288326740264893,9.676919937133789,2.9983139038085938,0
2310665,2024-02-06 10:26:51.734926,0.5360113978385925,8.68864917755127,2.1751534938812256,0
2310742,2024-02-06 10:26:51.809857,0.7824809551239014,8.805901527404785,2.2876200675964355,0
2310818,2024-02-06 10:26:51.899872,0.5240468978881836,9.030835151672363,2.7733805179595947,0
2310894,2024-02-06 10:26:51.959534,0.3804723918437958,9.339520454406738,3.153852939605713,0
2310971,2024-02-06 10:26:52.049894,0.11246667802333832,8.954261779785156,3.342892646789551,0
2311047,2024-02-06 10:26:52.124860,0.39722275733947754,9.081086158752441,2.6800570487976074,0
2311124,2024-02-06 10:26:52.199870,0.6077986359596252,8.865724563598633,3.2376046180725098,0
2311201,2024-02-06 10:26:52.289854,0.5814766883850098,8.624040603637695,3.4266443252563477,0
2311277,2024-02-06 10:26:52.349846,-0.028714897111058235,9.10740852355957,4.132552146911621,0
2311353,2024-02-06 10:26:52.424841,-0.7441943883895874,12.514909744262695,3.5175747871398926,0
2311430,2024-02-06 10:26:52.499886,-0.040679436177015305,11.454851150512695,1.584105134010315,0
2311506,2024-02-06 10:26:52.574849,-1.6080342531204224,5.592226028442383,0.08135887235403061,0
2311583,2024-02-06 10:26:52.664135,0.8566610813140869,11.751571655273438,2.5604116916656494,0
2311660,2024-02-06 10:26:52.739849,0.9978426694869995,9.358663558959961,2.8690967559814453,0
2311736,2024-02-06 10:26:52.814686,-0.18664683401584625,7.676449298858643,2.7422726154327393,0
2311812,2024-02-06 10:26:52.904875,-0.021536173298954964,9.05237102508545,3.1251380443573,0
2311889,2024-02-06 10:26:52.964883,-0.15314611792564392,8.344070434570312,3.5151820182800293,0
2311965,2024-02-06 10:26:53.039868,-0.6724071502685547,9.179195404052734,3.2567479610443115,0
2312041,2024-02-06 10:26:53.115030,-0.844696581363678,8.889653205871582,3.479288339614868,0
2312118,2024-02-06 10:26:53.189920,0.29672059416770935,11.514674186706543,3.7999379634857178,0
2312195,2024-02-06 10:26:53.264840,1.5099250078201294,11.761143684387207,2.6393775939941406,0
2312272,2024-02-06 10:26:53.339835,0.8494823575019836,8.647970199584961,0.8303391337394714,0
2312348,2024-02-06 10:26:53.429848,2.2445478439331055,7.456301689147949,1.0265575647354126,0
2312424,2024-02-06 10:26:53.504759,1.3376356363296509,9.81092357635498,1.6846072673797607,0
2312501,2024-02-06 10:26:53.594723,1.5051392316818237,9.425664901733398,2.184725046157837,0
2312578,2024-02-06 10:26:53.654145,1.3424214124679565,8.33449935913086,2.4000868797302246,0
2312654,2024-02-06 10:26:53.729861,1.1246668100357056,9.480701446533203,2.0890088081359863,0
2312731,2024-02-06 10:26:53.804946,1.0696299076080322,9.064335823059082,2.7015931606292725,0
2312807,2024-02-06 10:26:53.879888,0.8710185289382935,8.954261779785156,2.6369848251342773,0
2312883,2024-02-06 10:26:53.954836,1.4405306577682495,9.576417922973633,2.8643109798431396,0
2312960,2024-02-06 10:26:54.029858,-0.07896596938371658,11.730035781860352,3.3955366611480713,0
2313037,2024-02-06 10:26:54.104858,0.4450809061527252,11.445279121398926,1.306527853012085,0
2313113,2024-02-06 10:26:54.194840,-1.7444299459457397,6.633141040802002,0.923662543296814,0
2313190,2024-02-06 10:26:54.269728,-0.5551546812057495,10.375649452209473,1.7635732889175415,0
2313266,2024-02-06 10:26:54.344848,-0.8542681932449341,9.514202117919922,2.177546262741089,0
2313342,2024-02-06 10:26:54.419629,-1.514710783958435,8.078457832336426,2.577162027359009,0
2313419,2024-02-06 10:26:54.494147,-0.9451987147331238,9.183980941772461,2.68245005607605,0
2313496,2024-02-06 10:26:54.569047,-0.8399107456207275,8.951869010925293,2.5532329082489014,0
2313572,2024-02-06 10:26:54.644711,-0.9116979837417603,8.68147087097168,3.1658174991607666,0
2313649,2024-02-06 10:26:54.719137,-0.648478090763092,8.93990421295166,3.4027152061462402,0
2313725,2024-02-06 10:26:54.794689,-0.23929080367088318,9.066728591918945,4.180410385131836,0
2313801,2024-02-06 10:26:54.869582,0.4714028835296631,11.08395004272461,5.187824726104736,0
2313878,2024-02-06 10:26:54.959840,0.07657305896282196,10.818337440490723,0.46661707758903503,0
2313955,2024-02-06 10:26:55.034887,0.6963362693786621,6.3699212074279785,0.8231604099273682,0
2314031,2024-02-06 10:26:55.109690,-0.13878867030143738,9.36584186553955,2.696807384490967,0
2314108,2024-02-06 10:26:55.184858,0.1507532149553299,10.033463478088379,2.014828681945801,0
2314184,2024-02-06 10:26:55.259589,0.5934411883354187,8.107172966003418,3.261533737182617,0
2314260,2024-02-06 10:26:55.334848,-0.06221561133861542,8.975798606872559,2.388122320175171,0
2314337,2024-02-06 10:26:55.409822,0.09571632742881775,8.013849258422852,1.6870001554489136,0
2314414,2024-02-06 10:26:55.484826,0.19382555782794952,5.843481540679932,1.5410327911376953,0
2314490,2024-02-06 10:26:55.559867,-0.5384043455123901,5.479759693145752,0.648478090763092,0
2314567,2024-02-06 10:26:55.634862,-0.17707519233226776,7.154795169830322,1.6487137079238892,0
2314643,2024-02-06 10:26:55.724295,-1.0265575647354126,6.590068817138672,-0.011964540928602219,0
2314719,2024-02-06 10:26:55.799833,-0.7154794931411743,9.21987533569336,-1.6558923721313477,0
2314796,2024-02-06 10:26:55.874585,-3.9865849018096924,12.41201400756836,-1.3543859720230103,0
2314873,2024-02-06 10:26:55.949760,-3.1251380443573,9.155266761779785,-0.6125844717025757,0
2314950,2024-02-06 10:26:56.024064,-2.5675904750823975,9.152873039245605,-1.5194966793060303,0
2315026,2024-02-06 10:26:56.099448,-3.273498296737671,11.574496269226074,-1.7300724983215332,0
2315102,2024-02-06 10:26:56.174272,-1.8951832056045532,14.453165054321289,-4.663777828216553,0
2315179,2024-02-06 10:26:56.249244,-4.221089839935303,14.204302787780762,-2.7518444061279297,0
2315255,2024-02-06 10:26:56.324584,-4.764279842376709,11.617568969726562,1.8736470937728882,0
2315332,2024-02-06 10:26:56.399400,-2.7446656227111816,8.171781539916992,2.1177237033843994,0
2315409,2024-02-06 10:26:56.489839,-4.5991692543029785,9.6697416305542,0.8973405361175537,0
2315485,2024-02-06 10:26:56.564623,-2.0890088081359863,8.693434715270996,1.8257888555526733,0
2315561,2024-02-06 10:26:56.639832,-1.6080342531204224,7.102151393890381,0.20818300545215607,0
2315638,2024-02-06 10:26:56.714485,-3.5319323539733887,6.245490074157715,0.727444052696228,0
2315714,2024-02-06 10:26:56.789777,-2.677664041519165,8.097600936889648,-1.0624512434005737,0
2315791,2024-02-06 10:26:56.864916,-3.893261432647705,9.016477584838867,-3.7712230682373047,0
2315868,2024-02-06 10:26:56.939818,-2.8906328678131104,4.862389087677002,-6.37949275970459,0
2315944,2024-02-06 10:26:57.014668,-5.580261707305908,27.173864364624023,-0.6891575455665588,0
2316020,2024-02-06 10:26:57.089880,0.6963362693786621,2.809274196624756,2.5963053703308105,0
2316097,2024-02-06 10:26:57.164789,0.9619490504264832,10.387614250183105,3.3548572063446045,0
2316173,2024-02-06 10:26:57.254795,-0.746587336063385,9.179195404052734,4.393379211425781,0
2316250,2024-02-06 10:26:57.329455,0.15553902089595795,7.956419467926025,4.46277379989624,0
2316327,2024-02-06 10:26:57.404464,0.26561281085014343,7.949240684509277,5.501295566558838,0
2316403,2024-02-06 10:26:57.479796,0.009571632370352745,7.530481815338135,6.743215084075928,0
2316479,2024-02-06 10:26:57.554783,-0.5599405169487,6.798252105712891,6.408207893371582,0
2316556,2024-02-06 10:26:57.629848,-0.4235447347164154,6.41538667678833,5.731014728546143,0
2316632,2024-02-06 10:26:57.704330,-0.5838695764541626,6.329241752624512,6.67621374130249,0
2316708,2024-02-06 10:26:57.779704,-0.13639576733112335,5.396007537841797,9.12415885925293,0
2316785,2024-02-06 10:26:57.854703,0.952377438545227,4.960498332977295,8.882474899291992,0
2316862,2024-02-06 10:26:57.929043,1.2778129577636719,4.1493024826049805,8.401500701904297,0
2316938,2024-02-06 10:26:58.019490,0.9332341551780701,3.5534684658050537,7.951633453369141,0
2317015,2024-02-06 10:26:58.094292,0.363722026348114,3.1323165893554688,7.987527370452881,0
2317091,2024-02-06 10:26:58.169735,-0.10768086463212967,3.1012089252471924,9.145694732666016,0
2317167,2024-02-06 10:26:58.244501,0.2105759084224701,2.3426570892333984,9.176802635192871,0
2317244,2024-02-06 10:26:58.319397,0.32782840728759766,2.184725046157837,8.679078102111816,0
2317321,2024-02-06 10:26:58.394814,0.8470894694328308,1.4668526649475098,9.73195743560791,0
2317397,2024-02-06 10:26:58.469777,-0.3924369215965271,-1.4883887767791748,11.911896705627441,0
2317474,2024-02-06 10:26:58.544554,-0.2512553632259369,-3.7496869564056396,9.593168258666992,0
2317550,2024-02-06 10:26:58.619724,0.8135887384414673,-0.7298369407653809,10.811159133911133,1
2317626,2024-02-06 10:26:58.694824,0.7178724408149719,-0.11485958844423294,9.971247673034668,1
2317703,2024-02-06 10:26:58.784809,0.8135887384414673,-0.1603248417377472,9.765458106994629,1
2317780,2024-02-06 10:26:58.859794,0.7753022313117981,0.0023929080925881863,10.258397102355957,1
2317856,2024-02-06 10:26:58.934787,0.5838695764541626,-0.03350071236491203,9.995177268981934,1
2317933,2024-02-06 10:26:59.009958,0.19382555782794952,1.3448143005371094,10.217717170715332,1
2318009,2024-02-06 10:26:59.084533,0.16271774470806122,1.7013576030731201,9.109801292419434,1
2318085,2024-02-06 10:26:59.159445,-0.44747382402420044,1.8329676389694214,8.801115989685059,1
2318162,2024-02-06 10:26:59.234855,-1.1581674814224243,2.572376251220703,8.095208168029785,1
2318239,2024-02-06 10:26:59.309721,-1.49317467212677,3.5103962421417236,8.94229793548584,1
2318316,2024-02-06 10:26:59.384785,-1.1653462648391724,4.618312835693359,8.918368339538574,1
2318392,2024-02-06 10:26:59.459787,-1.612820029258728,5.1399664878845215,8.281854629516602,1
2318468,2024-02-06 10:26:59.549794,-1.1366313695907593,6.1665239334106445,7.236154079437256,1
2318545,2024-02-06 10:26:59.624736,-1.3448143005371094,6.731250286102295,6.829359531402588,1
2318622,2024-02-06 10:26:59.699083,-1.4596738815307617,6.484780788421631,6.338813304901123,1
2318698,2024-02-06 10:26:59.789811,-1.2419192790985107,6.834145545959473,5.532403469085693,1
2318775,2024-02-06 10:26:59.849837,-0.3709007501602173,8.076065063476562,5.4845452308654785,1
2318851,2024-02-06 10:26:59.924327,-0.7106937170028687,8.571396827697754,4.613526821136475,1
2318927,2024-02-06 10:26:59.999775,-0.39961564540863037,8.9231538772583,3.9530842304229736,1
2319004,2024-02-06 10:27:00.074832,-0.7705163955688477,8.94947624206543,3.7616515159606934,1
2319081,2024-02-06 10:27:00.149674,-1.0576653480529785,8.875295639038086,2.8475606441497803,1
2319157,2024-02-06 10:27:00.224775,-1.268241286277771,9.514202117919922,2.4981961250305176,1
2319234,2024-02-06 10:27:00.314794,-2.0411505699157715,9.172017097473145,2.416837215423584,1
2319310,2024-02-06 10:27:00.389850,-1.8664683103561401,9.55727481842041,2.0220072269439697,1
2319386,2024-02-06 10:27:00.464583,-3.1921393871307373,9.47830867767334,2.6561279296875,1
2319463,2024-02-06 10:27:00.539783,-2.4718739986419678,9.420879364013672,1.9382555484771729,1
2319540,2024-02-06 10:27:00.614601,-2.2373690605163574,8.844188690185547,2.053115129470825,1
2319616,2024-02-06 10:27:00.689754,-2.938491106033325,9.698456764221191,0.43790218234062195,1
2319693,2024-02-06 10:27:00.764749,-3.3404996395111084,9.329948425292969,-0.16750356554985046,1
2319769,2024-02-06 10:27:00.839791,-3.414679765701294,9.952104568481445,-1.179703712463379,1
2319845,2024-02-06 10:27:00.914758,-2.4359803199768066,10.368471145629883,-2.148831367492676,1
2319922,2024-02-06 10:27:00.989569,-3.0030996799468994,11.926254272460938,-2.3641932010650635,1
2319999,2024-02-06 10:27:01.079531,-2.9193477630615234,10.19857406616211,-0.16750356554985046,1
2320075,2024-02-06 10:27:01.154749,-3.5175747871398926,9.559667587280273,1.0576653480529785,1
2320152,2024-02-06 10:27:01.229765,-2.713557720184326,7.963598251342773,1.239526391029358,1
2320228,2024-02-06 10:27:01.304535,-2.6656997203826904,8.865724563598633,1.0409150123596191,1
2320304,2024-02-06 10:27:01.379556,-2.888240098953247,8.016242027282715,1.2203831672668457,0
2320381,2024-02-06 10:27:01.454750,-3.94111967086792,7.2194037437438965,0.844696581363678,0
2320458,2024-02-06 10:27:01.529704,-3.94111967086792,7.018399238586426,1.6391420364379883,0
2320534,2024-02-06 10:27:01.604992,-3.350071430206299,7.418015003204346,3.163424491882324,0
2320611,2024-02-06 10:27:01.679300,-5.922447681427002,7.745843410491943,1.6654640436172485,0
2320687,2024-02-06 10:27:01.754764,-5.398400783538818,6.9107184410095215,2.907383441925049,0
2320763,2024-02-06 10:27:01.844733,-5.2811479568481445,5.7860517501831055,2.395301103591919,0
2320840,2024-02-06 10:27:01.919717,-4.467559337615967,6.748000621795654,1.957398772239685,0
2320916,2024-02-06 10:27:01.994749,-5.180645942687988,8.104779243469238,1.7803236246109009,0
2320993,2024-02-06 10:27:02.069736,-5.101680278778076,11.569710731506348,0.10768086463212967,0
2321070,2024-02-06 10:27:02.144738,-2.979170560836792,9.595561027526855,1.552997350692749,0
2321146,2024-02-06 10:27:02.219695,-3.436216115951538,9.55727481842041,1.021771788597107,0
2321222,2024-02-06 10:27:02.294741,-1.7851094007492065,9.308412551879883,-0.07178724557161331,0
2321299,2024-02-06 10:27:02.369733,-0.6987291574478149,9.899460792541504,-1.5793193578720093,0
2321375,2024-02-06 10:27:02.444803,-1.1533817052841187,12.529266357421875,-2.495803117752075,0
2321452,2024-02-06 10:27:02.534724,-0.4809745252132416,12.282796859741211,-4.752315521240234,0
2321529,2024-02-06 10:27:02.594651,-0.29911351203918457,11.203596115112305,-5.106465816497803,0
2321605,2024-02-06 10:27:02.684774,-0.8494823575019836,9.442415237426758,-4.3048415184021,0
2321681,2024-02-06 10:27:02.759016,-0.43790218234062195,8.899225234985352,-5.608976364135742,0
2321758,2024-02-06 10:27:02.834748,-0.3350071310997009,8.930333137512207,-5.597012042999268,0
2321834,2024-02-06 10:27:02.909610,-0.8111958503723145,8.604897499084473,-4.694885730743408,0
